Arrow,Position,UniqueStim,Congruence,Block,Mapping,CorResp,TrialInBlock,.thisRepN,.thisTrialN,.thisN,.thisIndex,response,Acc,RT,Participant number,Gender,Age,Handedness,
0.0,2.0,2.0,0.0,1.0,0.0,0.0,1.0,0,0,0,0,left,1,1.2901492465753108,2,male,0,right,
1.0,1.0,4.0,1.0,1.0,0.0,1.0,2.0,0,1,1,1,left,0,0.16925983142573386,2,male,0,right,
1.0,2.0,5.0,0.0,1.0,0.0,1.0,3.0,0,2,2,2,left,0,0.12827754637692124,2,male,0,right,
1.0,1.0,4.0,1.0,1.0,0.0,1.0,4.0,0,3,3,3,left,0,0.17298013891559094,2,male,0,right,
1.0,0.0,3.0,0.0,1.0,0.0,1.0,5.0,0,4,4,4,left,0,0.19000338693149388,2,male,0,right,
1.0,2.0,5.0,0.0,1.0,0.0,1.0,6.0,0,5,5,5,left,0,0.15812571719288826,2,male,0,right,
1.0,1.0,4.0,1.0,1.0,0.0,1.0,7.0,0,6,6,6,left,0,0.15843646647408605,2,male,0,right,
1.0,0.0,3.0,0.0,1.0,0.0,1.0,8.0,0,7,7,7,left,0,0.1755624166689813,2,male,0,right,
1.0,2.0,5.0,0.0,1.0,0.0,1.0,9.0,0,8,8,8,left,0,0.17374323052354157,2,male,0,right,
0.0,2.0,2.0,0.0,1.0,0.0,0.0,10.0,0,9,9,9,left,1,0.15426381665747613,2,male,0,right,
0.0,1.0,1.0,0.0,1.0,0.0,0.0,11.0,0,10,10,10,left,1,0.17445044009946287,2,male,0,right,
1.0,2.0,5.0,0.0,1.0,0.0,1.0,12.0,0,11,11,11,left,0,0.1710050116525963,2,male,0,right,
0.0,1.0,1.0,0.0,1.0,0.0,0.0,13.0,0,12,12,12,left,1,0.1555132329231128,2,male,0,right,
0.0,0.0,0.0,1.0,1.0,0.0,0.0,14.0,0,13,13,13,left,1,0.15808644867502153,2,male,0,right,
0.0,2.0,2.0,0.0,1.0,0.0,0.0,15.0,0,14,14,14,left,1,0.17536531924270093,2,male,0,right,
0.0,1.0,1.0,0.0,1.0,0.0,0.0,16.0,0,15,15,15,left,1,0.17341548996046185,2,male,0,right,
0.0,0.0,0.0,1.0,1.0,0.0,0.0,17.0,0,16,16,16,left,1,0.15869775274768472,2,male,0,right,
0.0,2.0,2.0,0.0,1.0,0.0,0.0,18.0,0,17,17,17,left,1,0.15780212997924536,2,male,0,right,
0.0,1.0,1.0,0.0,1.0,0.0,0.0,19.0,0,18,18,18,left,1,0.1581800888525322,2,male,0,right,
1.0,0.0,3.0,0.0,1.0,0.0,1.0,20.0,0,19,19,19,left,0,0.15511412965133786,2,male,0,right,
0.0,2.0,2.0,0.0,1.0,0.0,0.0,21.0,0,20,20,20,left,1,0.15497555723413825,2,male,0,right,
0.0,0.0,0.0,1.0,1.0,0.0,0.0,22.0,0,21,21,21,left,1,0.17430582642555237,2,male,0,right,
1.0,0.0,3.0,0.0,1.0,0.0,1.0,23.0,0,22,22,22,left,0,0.170986887649633,2,male,0,right,
0.0,2.0,2.0,0.0,1.0,0.0,0.0,24.0,0,23,23,23,left,1,0.1711020499933511,2,male,0,right,
0.0,2.0,2.0,0.0,1.0,0.0,0.0,25.0,0,24,24,24,left,1,0.19025900936685503,2,male,0,right,
1.0,2.0,5.0,0.0,1.0,0.0,1.0,26.0,0,25,25,25,right,1,0.14007658103946596,2,male,0,right,
0.0,2.0,2.0,0.0,1.0,0.0,0.0,27.0,0,26,26,26,right,0,0.18695253087207675,2,male,0,right,
1.0,1.0,4.0,1.0,1.0,0.0,1.0,28.0,0,27,27,27,right,1,0.1707965867826715,2,male,0,right,
1.0,2.0,5.0,0.0,1.0,0.0,1.0,29.0,0,28,28,28,right,1,0.15855049598030746,2,male,0,right,
0.0,0.0,0.0,1.0,1.0,0.0,0.0,30.0,0,29,29,29,right,0,0.17077619745396078,2,male,0,right,
1.0,1.0,4.0,1.0,1.0,0.0,1.0,31.0,0,30,30,30,right,1,0.15500953956507146,2,male,0,right,
0.0,2.0,2.0,0.0,1.0,0.0,0.0,32.0,0,31,31,31,right,0,0.1718428642489016,2,male,0,right,
0.0,1.0,1.0,0.0,1.0,0.0,0.0,33.0,0,32,32,32,right,0,0.1734305932186544,2,male,0,right,
1.0,1.0,4.0,1.0,1.0,0.0,1.0,34.0,0,33,33,33,right,1,0.17110582580789924,2,male,0,right,
0.0,1.0,1.0,0.0,1.0,0.0,0.0,35.0,0,34,34,34,right,0,0.1550650439457968,2,male,0,right,
0.0,0.0,0.0,1.0,1.0,0.0,0.0,36.0,0,35,35,35,right,0,0.17442816263064742,2,male,0,right,
1.0,0.0,3.0,0.0,1.0,0.0,1.0,37.0,0,36,36,36,right,1,0.18698047194629908,2,male,0,right,
0.0,0.0,0.0,1.0,1.0,0.0,0.0,38.0,0,37,37,37,right,0,0.17123609129339457,2,male,0,right,
1.0,1.0,4.0,1.0,1.0,0.0,1.0,39.0,0,38,38,38,right,1,0.15407427097670734,2,male,0,right,
1.0,0.0,3.0,0.0,1.0,0.0,1.0,40.0,0,39,39,39,right,1,0.19018651370424777,2,male,0,right,
0.0,1.0,1.0,0.0,1.0,0.0,0.0,41.0,0,40,40,40,right,0,0.1711601975839585,2,male,0,right,
1.0,2.0,5.0,0.0,1.0,0.0,1.0,42.0,0,41,41,41,right,1,0.18762462539598346,2,male,0,right,
1.0,0.0,3.0,0.0,1.0,0.0,1.0,43.0,0,42,42,42,right,1,0.17463507724460214,2,male,0,right,
0.0,1.0,1.0,0.0,1.0,0.0,0.0,44.0,0,43,43,43,right,0,0.1710378611460328,2,male,0,right,
1.0,1.0,4.0,1.0,1.0,0.0,1.0,45.0,0,44,44,44,right,1,0.18706127430777997,2,male,0,right,
0.0,1.0,1.0,0.0,1.0,0.0,0.0,46.0,0,45,45,45,right,0,0.17101105290930718,2,male,0,right,
1.0,0.0,3.0,0.0,1.0,0.0,1.0,47.0,0,46,46,46,right,1,0.18742186424788088,2,male,0,right,
1.0,1.0,4.0,1.0,1.0,0.0,1.0,48.0,0,47,47,47,right,1,0.17466528376098722,2,male,0,right,
0.0,0.0,0.0,1.0,1.0,0.0,0.0,49.0,0,48,48,48,right,0,0.18661988177336752,2,male,0,right,
0.0,0.0,0.0,1.0,1.0,0.0,0.0,50.0,0,49,49,49,right,0,0.19058939290698618,2,male,0,right,
0.0,1.0,1.0,0.0,1.0,0.0,0.0,51.0,0,50,50,50,right,0,0.18999130430165678,2,male,0,right,
1.0,2.0,5.0,0.0,1.0,0.0,1.0,52.0,0,51,51,51,right,1,0.20290118281263858,2,male,0,right,
1.0,2.0,5.0,0.0,1.0,0.0,1.0,53.0,0,52,52,52,right,1,0.17457617458421737,2,male,0,right,
0.0,0.0,0.0,1.0,1.0,0.0,0.0,54.0,0,53,53,53,right,0,0.1715230530826375,2,male,0,right,
1.0,1.0,4.0,1.0,1.0,0.0,1.0,55.0,0,54,54,54,right,1,0.18641221220605075,2,male,0,right,
0.0,0.0,0.0,1.0,1.0,0.0,0.0,56.0,0,55,55,55,right,0,0.1710786399198696,2,male,0,right,
1.0,0.0,3.0,0.0,1.0,0.0,1.0,57.0,0,56,56,56,right,1,0.1710106753744185,2,male,0,right,
1.0,2.0,5.0,0.0,1.0,0.0,1.0,58.0,0,57,57,57,right,1,0.1903707734309137,2,male,0,right,
1.0,0.0,3.0,0.0,1.0,0.0,1.0,59.0,0,58,58,58,right,1,0.1743096022401005,2,male,0,right,
0.0,2.0,2.0,0.0,1.0,0.0,0.0,60.0,0,59,59,59,right,0,0.17129914741963148,2,male,0,right,
0.0,1.0,1.0,0.0,2.0,0.0,0.0,1.0,0,60,60,60,left,1,0.49362812866456807,2,male,0,right,
0.0,2.0,2.0,0.0,2.0,0.0,0.0,2.0,0,61,61,61,left,1,0.15837114490568638,2,male,0,right,
1.0,1.0,4.0,1.0,2.0,0.0,1.0,3.0,0,62,62,62,left,0,0.15490872540976852,2,male,0,right,
1.0,0.0,3.0,0.0,2.0,0.0,1.0,4.0,0,63,63,63,left,0,0.1588019651826471,2,male,0,right,
1.0,2.0,5.0,0.0,2.0,0.0,1.0,5.0,0,64,64,64,left,0,0.15770546928979456,2,male,0,right,
1.0,2.0,5.0,0.0,2.0,0.0,1.0,6.0,0,65,65,65,left,0,0.17481216287706047,2,male,0,right,
0.0,2.0,2.0,0.0,2.0,0.0,0.0,7.0,0,66,66,66,left,1,0.1553478523856029,2,male,0,right,
1.0,2.0,5.0,0.0,2.0,0.0,1.0,8.0,0,67,67,67,left,0,0.1708671945380047,2,male,0,right,
0.0,2.0,2.0,0.0,2.0,0.0,0.0,9.0,0,68,68,68,left,1,0.1557669674511999,2,male,0,right,
1.0,2.0,5.0,0.0,2.0,0.0,1.0,10.0,0,69,69,69,left,0,0.1554207254666835,2,male,0,right,
0.0,0.0,0.0,1.0,2.0,0.0,0.0,11.0,0,70,70,70,left,1,0.15471011772751808,2,male,0,right,
0.0,0.0,0.0,1.0,2.0,0.0,0.0,12.0,0,71,71,71,left,1,0.15939741069450974,2,male,0,right,
0.0,2.0,2.0,0.0,2.0,0.0,0.0,13.0,0,72,72,72,left,1,0.15742454887367785,2,male,0,right,
0.0,1.0,1.0,0.0,2.0,0.0,0.0,14.0,0,73,73,73,left,1,0.1746645284583792,2,male,0,right,
0.0,0.0,0.0,1.0,2.0,0.0,0.0,15.0,0,74,74,74,left,1,0.15807021281216294,2,male,0,right,
1.0,1.0,4.0,1.0,2.0,0.0,1.0,16.0,0,75,75,75,left,0,0.13896045100409538,2,male,0,right,
1.0,0.0,3.0,0.0,2.0,0.0,1.0,17.0,0,76,76,76,left,0,0.19039229559712112,2,male,0,right,
0.0,1.0,1.0,0.0,2.0,0.0,0.0,18.0,0,77,77,77,left,1,0.17097329488024116,2,male,0,right,
1.0,1.0,4.0,1.0,2.0,0.0,1.0,19.0,0,78,78,78,left,0,0.1396608641371131,2,male,0,right,
1.0,0.0,3.0,0.0,2.0,0.0,1.0,20.0,0,79,79,79,left,0,0.14215176727157086,2,male,0,right,
1.0,0.0,3.0,0.0,2.0,0.0,1.0,21.0,0,80,80,80,left,0,0.1741891538258642,2,male,0,right,
0.0,0.0,0.0,1.0,2.0,0.0,0.0,22.0,0,81,81,81,left,1,0.1705326575320214,2,male,0,right,
1.0,2.0,5.0,0.0,2.0,0.0,1.0,23.0,0,82,82,82,left,0,0.1710208699805662,2,male,0,right,
0.0,1.0,1.0,0.0,2.0,0.0,0.0,24.0,0,83,83,83,left,1,0.17104541277512908,2,male,0,right,
1.0,1.0,4.0,1.0,2.0,0.0,1.0,25.0,0,84,84,84,left,0,0.1712285396642983,2,male,0,right,
1.0,1.0,4.0,1.0,2.0,0.0,1.0,26.0,0,85,85,85,left,0,0.1756141452351585,2,male,0,right,
1.0,1.0,4.0,1.0,2.0,0.0,1.0,27.0,0,86,86,86,left,0,0.17304055183194578,2,male,0,right,
0.0,0.0,0.0,1.0,2.0,0.0,0.0,28.0,0,87,87,87,left,1,0.17128253390546888,2,male,0,right,
0.0,1.0,1.0,0.0,2.0,0.0,0.0,29.0,0,88,88,88,left,1,0.1901400713250041,2,male,0,right,
1.0,0.0,3.0,0.0,2.0,0.0,1.0,30.0,0,89,89,89,left,0,0.18728669022675604,2,male,0,right,
1.0,1.0,4.0,1.0,2.0,0.0,1.0,31.0,0,90,90,90,left,0,0.18974965228699148,2,male,0,right,
0.0,2.0,2.0,0.0,2.0,0.0,0.0,32.0,0,91,91,91,left,1,0.18715566955506802,2,male,0,right,
0.0,0.0,0.0,1.0,2.0,0.0,0.0,33.0,0,92,92,92,left,1,0.17442740756087005,2,male,0,right,
1.0,1.0,4.0,1.0,2.0,0.0,1.0,34.0,0,93,93,93,left,0,0.17035670473705977,2,male,0,right,
0.0,1.0,1.0,0.0,2.0,0.0,0.0,35.0,0,94,94,94,left,1,0.17146792623680085,2,male,0,right,
1.0,2.0,5.0,0.0,2.0,0.0,1.0,36.0,0,95,95,95,left,0,0.18662667833268642,2,male,0,right,
1.0,1.0,4.0,1.0,2.0,0.0,1.0,37.0,0,96,96,96,left,0,0.1743269709404558,2,male,0,right,
0.0,1.0,1.0,0.0,2.0,0.0,0.0,38.0,0,97,97,97,left,1,0.17093893489800394,2,male,0,right,
1.0,2.0,5.0,0.0,2.0,0.0,1.0,39.0,0,98,98,98,left,0,0.17089249251876026,2,male,0,right,
0.0,1.0,1.0,0.0,2.0,0.0,0.0,40.0,0,99,99,99,left,1,0.20293818577192724,2,male,0,right,
1.0,2.0,5.0,0.0,2.0,0.0,1.0,41.0,0,100,100,100,left,0,0.17130216804798692,2,male,0,right,
0.0,0.0,0.0,1.0,2.0,0.0,0.0,42.0,0,101,101,101,left,1,0.20314887608401477,2,male,0,right,
0.0,0.0,0.0,1.0,2.0,0.0,0.0,43.0,0,102,102,102,left,1,0.19033830147236586,2,male,0,right,
0.0,2.0,2.0,0.0,2.0,0.0,0.0,44.0,0,103,103,103,left,1,0.1903805905021727,2,male,0,right,
1.0,1.0,4.0,1.0,2.0,0.0,1.0,45.0,0,104,104,104,left,0,0.18745848967228085,2,male,0,right,
0.0,2.0,2.0,0.0,2.0,0.0,0.0,46.0,0,105,105,105,left,1,0.1550880764843896,2,male,0,right,
1.0,0.0,3.0,0.0,2.0,0.0,1.0,47.0,0,106,106,106,left,0,0.17084189655724913,2,male,0,right,
0.0,0.0,0.0,1.0,2.0,0.0,0.0,48.0,0,107,107,107,left,1,0.18711413559503853,2,male,0,right,
1.0,0.0,3.0,0.0,2.0,0.0,1.0,49.0,0,108,108,108,left,0,0.1873123657424003,2,male,0,right,
0.0,2.0,2.0,0.0,2.0,0.0,0.0,50.0,0,109,109,109,left,1,0.33090762596111745,2,male,0,right,
0.0,1.0,1.0,0.0,2.0,0.0,0.0,51.0,0,110,110,110,left,1,0.20595317159313709,2,male,0,right,
1.0,0.0,3.0,0.0,2.0,0.0,1.0,52.0,0,111,111,111,left,0,0.18708015326410532,2,male,0,right,
0.0,2.0,2.0,0.0,2.0,0.0,0.0,53.0,0,112,112,112,left,1,0.17234089388512075,2,male,0,right,
1.0,0.0,3.0,0.0,2.0,0.0,1.0,54.0,0,113,113,113,left,0,0.18654927413444966,2,male,0,right,
1.0,2.0,5.0,0.0,2.0,0.0,1.0,55.0,0,114,114,114,left,0,0.17372095317114145,2,male,0,right,
0.0,2.0,2.0,0.0,2.0,0.0,0.0,56.0,0,115,115,115,left,1,0.1871500058332458,2,male,0,right,
0.0,0.0,0.0,1.0,2.0,0.0,0.0,57.0,0,116,116,116,left,1,0.17442778509575874,2,male,0,right,
1.0,0.0,3.0,0.0,2.0,0.0,1.0,58.0,0,117,117,117,left,0,0.17071389651391655,2,male,0,right,
1.0,2.0,5.0,0.0,2.0,0.0,1.0,59.0,0,118,118,118,left,0,0.1924621956422925,2,male,0,right,
0.0,1.0,1.0,0.0,2.0,0.0,0.0,60.0,0,119,119,119,left,1,0.20199083467014134,2,male,0,right,
0.0,1.0,1.0,0.0,3.0,0.0,0.0,1.0,0,120,120,120,left,1,0.2858569035306573,2,male,0,right,
0.0,2.0,2.0,0.0,3.0,0.0,0.0,2.0,0,121,121,121,left,1,0.1742759975604713,2,male,0,right,
1.0,0.0,3.0,0.0,3.0,0.0,1.0,3.0,0,122,122,122,left,0,0.18752834212500602,2,male,0,right,
1.0,1.0,4.0,1.0,3.0,0.0,1.0,4.0,0,123,123,123,left,0,0.17438738385681063,2,male,0,right,
1.0,1.0,4.0,1.0,3.0,0.0,1.0,5.0,0,124,124,124,left,0,0.20573266420979053,2,male,0,right,
1.0,0.0,3.0,0.0,3.0,0.0,1.0,6.0,0,125,125,125,left,0,0.19063508021645248,2,male,0,right,
1.0,0.0,3.0,0.0,3.0,0.0,1.0,7.0,0,126,126,126,left,0,0.1904791392153129,2,male,0,right,
1.0,2.0,5.0,0.0,3.0,0.0,1.0,8.0,0,127,127,127,left,0,0.19032055512070656,2,male,0,right,
1.0,1.0,4.0,1.0,3.0,0.0,1.0,9.0,0,128,128,128,left,0,0.19024768192321062,2,male,0,right,
0.0,0.0,0.0,1.0,3.0,0.0,0.0,10.0,0,129,129,129,left,1,0.1867939467774704,2,male,0,right,
0.0,2.0,2.0,0.0,3.0,0.0,0.0,11.0,0,130,130,130,left,1,0.20654144312720746,2,male,0,right,
1.0,2.0,5.0,0.0,3.0,0.0,1.0,12.0,0,131,131,131,left,0,0.1710046340012923,2,male,0,right,
1.0,1.0,4.0,1.0,3.0,0.0,1.0,13.0,0,132,132,132,left,0,0.190127988695167,2,male,0,right,
1.0,2.0,5.0,0.0,3.0,0.0,1.0,14.0,0,133,133,133,left,0,0.20629903604276478,2,male,0,right,
0.0,0.0,0.0,1.0,3.0,0.0,0.0,15.0,0,134,134,134,left,1,0.20169481087941676,2,male,0,right,
1.0,0.0,3.0,0.0,3.0,0.0,1.0,16.0,0,135,135,135,left,0,0.18699821818154305,2,male,0,right,
0.0,0.0,0.0,1.0,3.0,0.0,0.0,17.0,0,136,136,136,left,1,0.20331878762226552,2,male,0,right,
0.0,2.0,2.0,0.0,3.0,0.0,0.0,18.0,0,137,137,137,left,1,0.19023522175848484,2,male,0,right,
0.0,0.0,0.0,1.0,3.0,0.0,0.0,19.0,0,138,138,138,left,1,0.1903077174210921,2,male,0,right,
0.0,1.0,1.0,0.0,3.0,0.0,0.0,20.0,0,139,139,139,left,1,0.19015404174569994,2,male,0,right,
0.0,2.0,2.0,0.0,3.0,0.0,0.0,21.0,0,140,140,140,left,1,0.20629412750713527,2,male,0,right,
1.0,0.0,3.0,0.0,3.0,0.0,1.0,22.0,0,141,141,141,left,0,0.18667651910800487,2,male,0,right,
1.0,1.0,4.0,1.0,3.0,0.0,1.0,23.0,0,142,142,142,left,0,0.1900075402809307,2,male,0,right,
0.0,1.0,1.0,0.0,3.0,0.0,0.0,24.0,0,143,143,143,left,1,0.2037632007850334,2,male,0,right,
0.0,0.0,0.0,1.0,3.0,0.0,0.0,25.0,0,144,144,144,left,1,0.17398865811992437,2,male,0,right,
1.0,1.0,4.0,1.0,3.0,0.0,1.0,26.0,0,145,145,145,left,0,0.203211554675363,2,male,0,right,
1.0,1.0,4.0,1.0,3.0,0.0,1.0,27.0,0,146,146,146,left,0,0.15817782329395413,2,male,0,right,
0.0,2.0,2.0,0.0,3.0,0.0,0.0,28.0,0,147,147,147,left,1,0.18705749849323183,2,male,0,right,
0.0,0.0,0.0,1.0,3.0,0.0,0.0,29.0,0,148,148,148,left,1,0.18995052552782,2,male,0,right,
1.0,0.0,3.0,0.0,3.0,0.0,1.0,30.0,0,149,149,149,left,0,0.2029929350828752,2,male,0,right,
1.0,2.0,5.0,0.0,3.0,0.0,1.0,31.0,0,150,150,150,left,0,0.17426618037279695,2,male,0,right,
0.0,2.0,2.0,0.0,3.0,0.0,0.0,32.0,0,151,151,151,left,1,0.1707565631950274,2,male,0,right,
0.0,0.0,0.0,1.0,3.0,0.0,0.0,33.0,0,152,152,152,left,1,0.20668379124253988,2,male,0,right,
1.0,1.0,4.0,1.0,3.0,0.0,1.0,34.0,0,153,153,153,left,0,0.17076373717281967,2,male,0,right,
1.0,1.0,4.0,1.0,3.0,0.0,1.0,35.0,0,154,154,154,left,0,0.17457995028235018,2,male,0,right,
1.0,2.0,5.0,0.0,3.0,0.0,1.0,36.0,0,155,155,155,left,0,0.1900475638685748,2,male,0,right,
1.0,2.0,5.0,0.0,3.0,0.0,1.0,37.0,0,156,156,156,left,0,0.20709384442307055,2,male,0,right,
0.0,2.0,2.0,0.0,3.0,0.0,0.0,38.0,0,157,157,157,left,1,0.18652095564175397,2,male,0,right,
1.0,0.0,3.0,0.0,3.0,0.0,1.0,39.0,0,158,158,158,left,0,0.1873293569078669,2,male,0,right,
0.0,1.0,1.0,0.0,3.0,0.0,0.0,40.0,0,159,159,159,left,1,0.18691250728443265,2,male,0,right,
0.0,1.0,1.0,0.0,3.0,0.0,0.0,41.0,0,160,160,160,left,1,0.17432470538187772,2,male,0,right,
1.0,1.0,4.0,1.0,3.0,0.0,1.0,42.0,0,161,161,161,left,0,0.18671692023053765,2,male,0,right,
1.0,2.0,5.0,0.0,3.0,0.0,1.0,43.0,0,162,162,162,left,0,0.1749133545672521,2,male,0,right,
0.0,2.0,2.0,0.0,3.0,0.0,0.0,44.0,0,163,163,163,left,1,0.20322439225856215,2,male,0,right,
0.0,1.0,1.0,0.0,3.0,0.0,0.0,45.0,0,164,164,164,left,1,0.1742911007022485,2,male,0,right,
0.0,0.0,0.0,1.0,3.0,0.0,0.0,46.0,0,165,165,165,left,1,0.2066078974166885,2,male,0,right,
1.0,0.0,3.0,0.0,3.0,0.0,1.0,47.0,0,166,166,166,left,0,0.15486530354246497,2,male,0,right,
1.0,0.0,3.0,0.0,3.0,0.0,1.0,48.0,0,167,167,167,left,0,0.19041872618254274,2,male,0,right,
0.0,1.0,1.0,0.0,3.0,0.0,0.0,49.0,0,168,168,168,left,1,0.13893439783714712,2,male,0,right,
1.0,2.0,5.0,0.0,3.0,0.0,1.0,50.0,0,169,169,169,left,0,0.17113867530133575,2,male,0,right,
0.0,0.0,0.0,1.0,3.0,0.0,0.0,51.0,0,170,170,170,left,1,0.18734823586419225,2,male,0,right,
0.0,0.0,0.0,1.0,3.0,0.0,0.0,52.0,0,171,171,171,left,1,0.1740400092676282,2,male,0,right,
1.0,2.0,5.0,0.0,3.0,0.0,1.0,53.0,0,172,172,172,left,0,0.18732709146570414,2,male,0,right,
0.0,1.0,1.0,0.0,3.0,0.0,0.0,54.0,0,173,173,173,left,1,0.18745546892751008,2,male,0,right,
0.0,2.0,2.0,0.0,3.0,0.0,0.0,55.0,0,174,174,174,left,1,0.19036095624323934,2,male,0,right,
0.0,2.0,2.0,0.0,3.0,0.0,0.0,56.0,0,175,175,175,left,1,0.20633679418824613,2,male,0,right,
0.0,1.0,1.0,0.0,3.0,0.0,0.0,57.0,0,176,176,176,left,1,0.17421936034224927,2,male,0,right,
1.0,2.0,5.0,0.0,3.0,0.0,1.0,58.0,0,177,177,177,left,0,0.20280074619222432,2,male,0,right,
1.0,0.0,3.0,0.0,3.0,0.0,1.0,59.0,0,178,178,178,left,0,0.17411363765131682,2,male,0,right,
0.0,1.0,1.0,0.0,3.0,0.0,0.0,60.0,0,179,179,179,left,1,0.17092232138384134,2,male,0,right,
0.0,2.0,2.0,0.0,4.0,1.0,2.0,1.0,0,180,180,180,left,0,0.5584323885850608,2,male,0,right,
0.0,0.0,0.0,1.0,4.0,1.0,0.0,2.0,0,181,181,181,left,1,0.15828392375260592,2,male,0,right,
1.0,2.0,5.0,0.0,4.0,1.0,2.0,3.0,0,182,182,182,left,0,0.15492949227336794,2,male,0,right,
1.0,1.0,4.0,1.0,4.0,1.0,1.0,4.0,0,183,183,183,left,0,0.15825409477110952,2,male,0,right,
0.0,1.0,1.0,0.0,4.0,1.0,1.0,5.0,0,184,184,184,left,0,0.15507372841238976,2,male,0,right,
0.0,2.0,2.0,0.0,4.0,1.0,2.0,6.0,0,185,185,185,left,0,0.15832847834099084,2,male,0,right,
1.0,0.0,3.0,0.0,4.0,1.0,0.0,7.0,0,186,186,186,left,1,0.15548529184889048,2,male,0,right,
0.0,0.0,0.0,1.0,4.0,1.0,0.0,8.0,0,187,187,187,left,1,0.15470747463405132,2,male,0,right,
1.0,1.0,4.0,1.0,4.0,1.0,1.0,9.0,0,188,188,188,left,0,0.17116925946902484,2,male,0,right,
0.0,1.0,1.0,0.0,4.0,1.0,1.0,10.0,0,189,189,189,left,0,0.15516057214699686,2,male,0,right,
1.0,1.0,4.0,1.0,4.0,1.0,1.0,11.0,0,190,190,190,left,0,0.18717568134889007,2,male,0,right,
1.0,1.0,4.0,1.0,4.0,1.0,1.0,12.0,0,191,191,191,left,0,0.15838549309410155,2,male,0,right,
1.0,1.0,4.0,1.0,4.0,1.0,1.0,13.0,0,192,192,192,left,0,0.35008233156986535,2,male,0,right,
1.0,2.0,5.0,0.0,4.0,1.0,2.0,14.0,0,193,193,193,left,0,0.17388142505660653,2,male,0,right,
1.0,2.0,5.0,0.0,4.0,1.0,2.0,15.0,0,194,194,194,left,0,0.17433112440630794,2,male,0,right,
1.0,0.0,3.0,0.0,4.0,1.0,0.0,16.0,0,195,195,195,left,1,0.1906800123397261,2,male,0,right,
0.0,0.0,0.0,1.0,4.0,1.0,0.0,17.0,0,196,196,196,left,1,0.17058325337711722,2,male,0,right,
0.0,0.0,0.0,1.0,4.0,1.0,0.0,18.0,0,197,197,197,left,1,0.15844817145261914,2,male,0,right,
0.0,2.0,2.0,0.0,4.0,1.0,2.0,19.0,0,198,198,198,left,0,0.17471927776932716,2,male,0,right,
1.0,2.0,5.0,0.0,4.0,1.0,2.0,20.0,0,199,199,199,left,0,0.154651970253326,2,male,0,right,
0.0,2.0,2.0,0.0,4.0,1.0,2.0,21.0,0,200,200,200,left,0,0.17148038640152663,2,male,0,right,
0.0,1.0,1.0,0.0,4.0,1.0,1.0,22.0,0,201,201,201,left,0,0.1743953131372109,2,male,0,right,
0.0,1.0,1.0,0.0,4.0,1.0,1.0,23.0,0,202,202,202,left,0,0.17409891192801297,2,male,0,right,
1.0,2.0,5.0,0.0,4.0,1.0,2.0,24.0,0,203,203,203,left,0,0.18715755746234208,2,male,0,right,
1.0,0.0,3.0,0.0,4.0,1.0,0.0,25.0,0,204,204,204,left,1,0.17409287067130208,2,male,0,right,
1.0,0.0,3.0,0.0,4.0,1.0,0.0,26.0,0,205,205,205,left,1,0.19060072035063058,2,male,0,right,
1.0,1.0,4.0,1.0,4.0,1.0,1.0,27.0,0,206,206,206,left,0,0.19030469667632133,2,male,0,right,
0.0,1.0,1.0,0.0,4.0,1.0,1.0,28.0,0,207,207,207,left,0,0.14006110024638474,2,male,0,right,
0.0,0.0,0.0,1.0,4.0,1.0,0.0,29.0,0,208,208,208,left,1,0.1741600800305605,2,male,0,right,
0.0,0.0,0.0,1.0,4.0,1.0,0.0,30.0,0,209,209,209,left,1,0.19071135169360787,2,male,0,right,
0.0,0.0,0.0,1.0,4.0,1.0,0.0,31.0,0,210,210,210,left,1,0.17411288246512413,2,male,0,right,
0.0,0.0,0.0,1.0,4.0,1.0,0.0,32.0,0,211,211,211,left,1,0.17399620986543596,2,male,0,right,
0.0,1.0,1.0,0.0,4.0,1.0,1.0,33.0,0,212,212,212,left,0,0.15840777033008635,2,male,0,right,
0.0,2.0,2.0,0.0,4.0,1.0,2.0,34.0,0,213,213,213,left,0,0.17421936034224927,2,male,0,right,
0.0,2.0,2.0,0.0,4.0,1.0,2.0,35.0,0,214,214,214,left,0,0.19016574684064835,2,male,0,right,
0.0,2.0,2.0,0.0,4.0,1.0,2.0,36.0,0,215,215,215,left,0,0.19048744603060186,2,male,0,right,
1.0,2.0,5.0,0.0,4.0,1.0,2.0,37.0,0,216,216,216,left,0,0.17078186117578298,2,male,0,right,
1.0,1.0,4.0,1.0,4.0,1.0,1.0,38.0,0,217,217,217,left,0,0.17445157282054424,2,male,0,right,
1.0,1.0,4.0,1.0,4.0,1.0,1.0,39.0,0,218,218,218,left,0,0.1741427113302052,2,male,0,right,
1.0,0.0,3.0,0.0,4.0,1.0,0.0,40.0,0,219,219,219,left,1,0.17426127183716744,2,male,0,right,
1.0,2.0,5.0,0.0,4.0,1.0,2.0,41.0,0,220,220,220,left,0,0.157922200858593,2,male,0,right,
1.0,2.0,5.0,0.0,4.0,1.0,2.0,42.0,0,221,221,221,left,0,0.17436284117866307,2,male,0,right,
0.0,0.0,0.0,1.0,4.0,1.0,0.0,43.0,0,222,222,222,left,1,0.15510355727747083,2,male,0,right,
0.0,2.0,2.0,0.0,4.0,1.0,2.0,44.0,0,223,223,223,left,0,0.1578009973745793,2,male,0,right,
0.0,1.0,1.0,0.0,4.0,1.0,1.0,45.0,0,224,224,224,left,0,0.19022540468722582,2,male,0,right,
1.0,1.0,4.0,1.0,4.0,1.0,1.0,46.0,0,225,225,225,left,0,0.15544715616852045,2,male,0,right,
1.0,0.0,3.0,0.0,4.0,1.0,0.0,47.0,0,226,226,226,left,1,0.15810910356231034,2,male,0,right,
0.0,2.0,2.0,0.0,4.0,1.0,2.0,48.0,0,227,227,227,left,0,0.18654474313370883,2,male,0,right,
0.0,1.0,1.0,0.0,4.0,1.0,1.0,49.0,0,228,228,228,left,0,0.1583182836184278,2,male,0,right,
1.0,2.0,5.0,0.0,4.0,1.0,2.0,50.0,0,229,229,229,left,0,0.15438011172227561,2,male,0,right,
1.0,0.0,3.0,0.0,4.0,1.0,0.0,51.0,0,230,230,230,left,1,0.17494960234034806,2,male,0,right,
0.0,1.0,1.0,0.0,4.0,1.0,1.0,52.0,0,231,231,231,left,0,0.15551965171471238,2,male,0,right,
1.0,2.0,5.0,0.0,4.0,1.0,2.0,53.0,0,232,232,232,left,0,0.18593645992223173,2,male,0,right,
1.0,0.0,3.0,0.0,4.0,1.0,0.0,54.0,0,233,233,233,left,1,0.1741143928375095,2,male,0,right,
0.0,0.0,0.0,1.0,4.0,1.0,0.0,55.0,0,234,234,234,left,1,0.1708894717739895,2,male,0,right,
0.0,1.0,1.0,0.0,4.0,1.0,1.0,56.0,0,235,235,235,left,0,0.19000980583950877,2,male,0,right,
1.0,1.0,4.0,1.0,4.0,1.0,1.0,57.0,0,236,236,236,left,0,0.17078299389686435,2,male,0,right,
1.0,0.0,3.0,0.0,4.0,1.0,0.0,58.0,0,237,237,237,left,1,0.20639796229079366,2,male,0,right,
0.0,2.0,2.0,0.0,4.0,1.0,2.0,59.0,0,238,238,238,left,0,0.1869196812622249,2,male,0,right,
1.0,0.0,3.0,0.0,4.0,1.0,0.0,60.0,0,239,239,239,left,1,0.18729046604130417,2,male,0,right,
0.0,0.0,0.0,1.0,5.0,0.0,0.0,1.0,0,240,240,240,left,1,0.20316058117896318,2,male,0,right,
1.0,2.0,5.0,0.0,5.0,0.0,1.0,2.0,0,241,241,241,left,0,0.18648772849701345,2,male,0,right,
1.0,1.0,4.0,1.0,5.0,0.0,1.0,3.0,0,242,242,242,left,0,0.17443420400377363,2,male,0,right,
1.0,1.0,4.0,1.0,5.0,0.0,1.0,4.0,0,243,243,243,left,0,0.1901057114591822,2,male,0,right,
0.0,0.0,0.0,1.0,5.0,0.0,0.0,5.0,0,244,244,244,left,1,0.18766087316907942,2,male,0,right,
1.0,2.0,5.0,0.0,5.0,0.0,1.0,6.0,0,245,245,245,left,0,0.186185663449578,2,male,0,right,
1.0,0.0,3.0,0.0,5.0,0.0,1.0,7.0,0,246,246,246,left,0,0.1743492481764406,2,male,0,right,
1.0,2.0,5.0,0.0,5.0,0.0,1.0,8.0,0,247,247,247,left,0,0.1743673721794039,2,male,0,right,
0.0,2.0,2.0,0.0,5.0,0.0,0.0,9.0,0,248,248,248,left,1,0.17108958982862532,2,male,0,right,
0.0,1.0,1.0,0.0,5.0,0.0,0.0,10.0,0,249,249,249,left,1,0.17408682929817587,2,male,0,right,
0.0,0.0,0.0,1.0,5.0,0.0,0.0,11.0,0,250,250,250,left,1,0.2068895730189979,2,male,0,right,
0.0,2.0,2.0,0.0,5.0,0.0,0.0,12.0,0,251,251,251,left,1,0.17385990312322974,2,male,0,right,
1.0,0.0,3.0,0.0,5.0,0.0,1.0,13.0,0,252,252,252,left,0,0.17101369600277394,2,male,0,right,
0.0,2.0,2.0,0.0,5.0,0.0,0.0,14.0,0,253,253,253,left,1,0.18725233036093414,2,male,0,right,
1.0,1.0,4.0,1.0,5.0,0.0,1.0,15.0,0,254,254,254,left,0,0.186530772713013,2,male,0,right,
0.0,0.0,0.0,1.0,5.0,0.0,0.0,16.0,0,255,255,255,left,1,0.3476121954154223,2,male,0,right,
1.0,0.0,3.0,0.0,5.0,0.0,1.0,17.0,0,256,256,256,left,0,0.18622870766557753,2,male,0,right,
1.0,1.0,4.0,1.0,5.0,0.0,1.0,18.0,0,257,257,257,left,0,0.174873330979608,2,male,0,right,
1.0,1.0,4.0,1.0,5.0,0.0,1.0,19.0,0,258,258,258,left,0,0.18983951664995402,2,male,0,right,
1.0,1.0,4.0,1.0,5.0,0.0,1.0,20.0,0,259,259,259,left,0,0.20660978532396257,2,male,0,right,
1.0,2.0,5.0,0.0,5.0,0.0,1.0,21.0,0,260,260,260,left,0,0.15812609472777694,2,male,0,right,
1.0,0.0,3.0,0.0,5.0,0.0,1.0,22.0,0,261,261,261,left,0,0.17462790315039456,2,male,0,right,
0.0,1.0,1.0,0.0,5.0,0.0,0.0,23.0,0,262,262,262,left,1,0.1704477018211037,2,male,0,right,
0.0,2.0,2.0,0.0,5.0,0.0,0.0,24.0,0,263,263,263,left,1,0.17484048148617148,2,male,0,right,
0.0,1.0,1.0,0.0,5.0,0.0,0.0,25.0,0,264,264,264,left,1,0.173717554891482,2,male,0,right,
0.0,1.0,1.0,0.0,5.0,0.0,0.0,26.0,0,265,265,265,left,1,0.19040324538946152,2,male,0,right,
1.0,2.0,5.0,0.0,5.0,0.0,1.0,27.0,0,266,266,266,left,0,0.1549325130181387,2,male,0,right,
1.0,2.0,5.0,0.0,5.0,0.0,1.0,28.0,0,267,267,267,right,1,0.1742911007022485,2,male,0,right,
1.0,0.0,3.0,0.0,5.0,0.0,1.0,29.0,0,268,268,268,right,1,0.142015837947838,2,male,0,right,
0.0,0.0,0.0,1.0,5.0,0.0,0.0,30.0,0,269,269,269,right,0,0.17125836852937937,2,male,0,right,
1.0,0.0,3.0,0.0,5.0,0.0,1.0,31.0,0,270,270,270,right,1,0.17124137748032808,2,male,0,right,
0.0,1.0,1.0,0.0,5.0,0.0,0.0,32.0,0,271,271,271,right,0,0.15500538621563464,2,male,0,right,
0.0,2.0,2.0,0.0,5.0,0.0,0.0,33.0,0,272,272,272,right,0,0.15801999438554049,2,male,0,right,
1.0,2.0,5.0,0.0,5.0,0.0,1.0,34.0,0,273,273,273,right,1,0.15505635971203446,2,male,0,right,
1.0,0.0,3.0,0.0,5.0,0.0,1.0,35.0,0,274,274,274,left,0,0.03022575192153454,2,male,0,right,
0.0,0.0,0.0,1.0,5.0,0.0,0.0,36.0,0,275,275,275,right,0,0.12304653646424413,2,male,0,right,
0.0,2.0,2.0,0.0,5.0,0.0,0.0,37.0,0,276,276,276,right,0,0.15812949289102107,2,male,0,right,
0.0,0.0,0.0,1.0,5.0,0.0,0.0,38.0,0,277,277,277,right,0,0.15819670248311013,2,male,0,right,
1.0,0.0,3.0,0.0,5.0,0.0,1.0,39.0,0,278,278,278,right,1,0.1707463685888797,2,male,0,right,
1.0,2.0,5.0,0.0,5.0,0.0,1.0,40.0,0,279,279,279,right,1,0.1428106464445591,2,male,0,right,
0.0,2.0,2.0,0.0,5.0,0.0,0.0,41.0,0,280,280,280,right,0,0.18652624171227217,2,male,0,right,
0.0,2.0,2.0,0.0,5.0,0.0,0.0,42.0,0,281,281,281,right,0,0.18996525125112385,2,male,0,right,
1.0,1.0,4.0,1.0,5.0,0.0,1.0,43.0,0,282,282,282,right,1,0.13989420933648944,2,male,0,right,
0.0,0.0,0.0,1.0,5.0,0.0,0.0,44.0,0,283,283,283,right,0,0.1551345189800486,2,male,0,right,
1.0,1.0,4.0,1.0,5.0,0.0,1.0,45.0,0,284,284,284,right,1,0.17067991429939866,2,male,0,right,
0.0,1.0,1.0,0.0,5.0,0.0,0.0,46.0,0,285,285,285,right,0,0.15523306757677346,2,male,0,right,
1.0,0.0,3.0,0.0,5.0,0.0,1.0,47.0,0,286,286,286,right,1,0.17118738335557282,2,male,0,right,
0.0,1.0,1.0,0.0,5.0,0.0,0.0,48.0,0,287,287,287,right,0,0.15445902617648244,2,male,0,right,
1.0,2.0,5.0,0.0,5.0,0.0,1.0,49.0,0,288,288,288,right,1,0.15535502636339515,2,male,0,right,
0.0,0.0,0.0,1.0,5.0,0.0,0.0,50.0,0,289,289,289,right,0,0.17120966059155762,2,male,0,right,
0.0,1.0,1.0,0.0,5.0,0.0,0.0,51.0,0,290,290,290,right,0,0.17430658161174506,2,male,0,right,
0.0,1.0,1.0,0.0,5.0,0.0,0.0,52.0,0,291,291,291,right,0,0.15828883228823543,2,male,0,right,
0.0,0.0,0.0,1.0,5.0,0.0,0.0,53.0,0,292,292,292,right,0,0.19033867900725454,2,male,0,right,
1.0,1.0,4.0,1.0,5.0,0.0,1.0,54.0,0,293,293,293,right,1,0.18739467847626656,2,male,0,right,
0.0,2.0,2.0,0.0,5.0,0.0,0.0,55.0,0,294,294,294,right,0,0.13907674606889486,2,male,0,right,
0.0,1.0,1.0,0.0,5.0,0.0,0.0,56.0,0,295,295,295,right,0,0.1741891538258642,2,male,0,right,
1.0,2.0,5.0,0.0,5.0,0.0,1.0,57.0,0,296,296,296,right,1,0.17113678739406168,2,male,0,right,
0.0,2.0,2.0,0.0,5.0,0.0,0.0,58.0,0,297,297,297,right,0,0.15514999977312982,2,male,0,right,
1.0,1.0,4.0,1.0,5.0,0.0,1.0,59.0,0,298,298,298,right,1,0.1711945574497804,2,male,0,right,
1.0,0.0,3.0,0.0,5.0,0.0,1.0,60.0,0,299,299,299,right,1,0.1902499474817887,2,male,0,right,
1.0,0.0,3.0,0.0,6.0,1.0,0.0,1.0,0,300,300,300,right,0,0.2387158916098997,2,male,0,right,
0.0,2.0,2.0,0.0,6.0,1.0,2.0,2.0,0,301,301,301,right,0,0.17119304707739502,2,male,0,right,
1.0,2.0,5.0,0.0,6.0,1.0,2.0,3.0,0,302,302,302,right,0,0.15509864874184132,2,male,0,right,
0.0,2.0,2.0,0.0,6.0,1.0,2.0,4.0,0,303,303,303,right,0,0.186782241682522,2,male,0,right,
0.0,0.0,0.0,1.0,6.0,1.0,0.0,5.0,0,304,304,304,right,0,0.1905705138342455,2,male,0,right,
1.0,1.0,4.0,1.0,6.0,1.0,1.0,6.0,0,305,305,305,right,1,0.15516132721677423,2,male,0,right,
1.0,1.0,4.0,1.0,6.0,1.0,1.0,7.0,0,306,306,306,right,1,0.1740849413909018,2,male,0,right,
0.0,1.0,1.0,0.0,6.0,1.0,1.0,8.0,0,307,307,307,right,1,0.15581718576140702,2,male,0,right,
0.0,2.0,2.0,0.0,6.0,1.0,2.0,9.0,0,308,308,308,right,0,0.15796373481862247,2,male,0,right,
1.0,2.0,5.0,0.0,6.0,1.0,2.0,10.0,0,309,309,309,right,0,0.17112734797410667,2,male,0,right,
1.0,1.0,4.0,1.0,6.0,1.0,1.0,11.0,0,310,310,310,right,1,0.17395467590540648,2,male,0,right,
0.0,0.0,0.0,1.0,6.0,1.0,0.0,12.0,0,311,311,311,right,0,0.13911601435393095,2,male,0,right,
0.0,2.0,2.0,0.0,6.0,1.0,2.0,13.0,0,312,312,312,right,0,0.15817971131764352,2,male,0,right,
1.0,2.0,5.0,0.0,6.0,1.0,2.0,14.0,0,313,313,313,right,0,0.17119229189120233,2,male,0,right,
1.0,2.0,5.0,0.0,6.0,1.0,2.0,15.0,0,314,314,314,right,0,0.15829147526528686,2,male,0,right,
0.0,1.0,1.0,0.0,6.0,1.0,1.0,16.0,0,315,315,315,right,1,0.18688758683856577,2,male,0,right,
0.0,0.0,0.0,1.0,6.0,1.0,0.0,17.0,0,316,316,316,right,0,0.19118899188470095,2,male,0,right,
1.0,0.0,3.0,0.0,6.0,1.0,0.0,18.0,0,317,317,317,right,0,0.1389351530233398,2,male,0,right,
0.0,1.0,1.0,0.0,6.0,1.0,1.0,19.0,0,318,318,318,right,1,0.17103068716824055,2,male,0,right,
0.0,1.0,1.0,0.0,6.0,1.0,1.0,20.0,0,319,319,319,right,1,0.20655730145517737,2,male,0,right,
1.0,2.0,5.0,0.0,6.0,1.0,2.0,21.0,0,320,320,320,right,0,0.1070223682327196,2,male,0,right,
1.0,0.0,3.0,0.0,6.0,1.0,0.0,22.0,0,321,321,321,right,0,0.1901393161388114,2,male,0,right,
0.0,1.0,1.0,0.0,6.0,1.0,1.0,23.0,0,322,322,322,right,1,0.17106278147548437,2,male,0,right,
1.0,0.0,3.0,0.0,6.0,1.0,0.0,24.0,0,323,323,323,right,0,0.18712395266629755,2,male,0,right,
1.0,1.0,4.0,1.0,6.0,1.0,1.0,25.0,0,324,324,324,right,1,0.2063481215154752,2,male,0,right,
0.0,2.0,2.0,0.0,6.0,1.0,2.0,26.0,0,325,325,325,right,0,0.17155703529715538,2,male,0,right,
0.0,0.0,0.0,1.0,6.0,1.0,0.0,27.0,0,326,326,326,right,0,0.20594184414949268,2,male,0,right,
0.0,0.0,0.0,1.0,6.0,1.0,0.0,28.0,0,327,327,327,right,0,0.17451425117906183,2,male,0,right,
0.0,1.0,1.0,0.0,6.0,1.0,1.0,29.0,0,328,328,328,right,1,0.1903749267803505,2,male,0,right,
1.0,0.0,3.0,0.0,6.0,1.0,0.0,30.0,0,329,329,329,right,0,0.1712126813363284,2,male,0,right,
1.0,1.0,4.0,1.0,6.0,1.0,1.0,31.0,0,330,330,330,right,1,0.1899546788772568,2,male,0,right,
1.0,0.0,3.0,0.0,6.0,1.0,0.0,32.0,0,331,331,331,right,0,0.20632810972165316,2,male,0,right,
0.0,2.0,2.0,0.0,6.0,1.0,2.0,33.0,0,332,332,332,right,0,0.1872889557853341,2,male,0,right,
1.0,2.0,5.0,0.0,6.0,1.0,2.0,34.0,0,333,333,333,right,0,0.18732784665189683,2,male,0,right,
0.0,1.0,1.0,0.0,6.0,1.0,1.0,35.0,0,334,334,334,right,1,0.20315114152617753,2,male,0,right,
0.0,0.0,0.0,1.0,6.0,1.0,0.0,36.0,0,335,335,335,right,0,0.19018462591338903,2,male,0,right,
1.0,2.0,5.0,0.0,6.0,1.0,2.0,37.0,0,336,336,336,right,0,0.18681320338509977,2,male,0,right,
1.0,1.0,4.0,1.0,6.0,1.0,1.0,38.0,0,337,337,337,right,1,0.19067623664159328,2,male,0,right,
0.0,2.0,2.0,0.0,6.0,1.0,2.0,39.0,0,338,338,338,right,0,0.18686379923019558,2,male,0,right,
0.0,1.0,1.0,0.0,6.0,1.0,1.0,40.0,0,339,339,339,right,1,0.15809702093247324,2,male,0,right,
1.0,0.0,3.0,0.0,6.0,1.0,0.0,41.0,0,340,340,340,right,0,0.20317190850619227,2,male,0,right,
0.0,2.0,2.0,0.0,6.0,1.0,2.0,42.0,0,341,341,341,right,0,0.18679810024332255,2,male,0,right,
1.0,2.0,5.0,0.0,6.0,1.0,2.0,43.0,0,342,342,342,right,0,0.17171033332124352,2,male,0,right,
1.0,1.0,4.0,1.0,6.0,1.0,1.0,44.0,0,343,343,343,right,1,0.19027939881198108,2,male,0,right,
0.0,2.0,2.0,0.0,6.0,1.0,2.0,45.0,0,344,344,344,right,0,0.18708317389246076,2,male,0,right,
1.0,0.0,3.0,0.0,6.0,1.0,0.0,46.0,0,345,345,345,right,0,0.20262743637431413,2,male,0,right,
0.0,0.0,0.0,1.0,6.0,1.0,0.0,47.0,0,346,346,346,right,0,0.1713606930570677,2,male,0,right,
0.0,2.0,2.0,0.0,6.0,1.0,2.0,48.0,0,347,347,347,right,0,0.17441796802449971,2,male,0,right,
1.0,1.0,4.0,1.0,6.0,1.0,1.0,49.0,0,348,348,348,right,1,0.1871745486278087,2,male,0,right,
1.0,0.0,3.0,0.0,6.0,1.0,0.0,50.0,0,349,349,349,right,0,0.18982139276340604,2,male,0,right,
0.0,1.0,1.0,0.0,6.0,1.0,1.0,51.0,0,350,350,350,right,1,0.20335125969722867,2,male,0,right,
0.0,0.0,0.0,1.0,6.0,1.0,0.0,52.0,0,351,351,351,right,0,0.17465395631734282,2,male,0,right,
0.0,1.0,1.0,0.0,6.0,1.0,1.0,53.0,0,352,352,352,right,1,0.19015517458319664,2,male,0,right,
0.0,0.0,0.0,1.0,6.0,1.0,0.0,54.0,0,353,353,353,right,0,0.19002075563184917,2,male,0,right,
0.0,0.0,0.0,1.0,6.0,1.0,0.0,55.0,0,354,354,354,right,0,0.20624919526744634,2,male,0,right,
1.0,1.0,4.0,1.0,6.0,1.0,1.0,56.0,0,355,355,355,right,1,0.18681244819890708,2,male,0,right,
1.0,2.0,5.0,0.0,6.0,1.0,2.0,57.0,0,356,356,356,right,0,0.17437945469282568,2,male,0,right,
1.0,2.0,5.0,0.0,6.0,1.0,2.0,58.0,0,357,357,357,right,0,0.17419897089712322,2,male,0,right,
1.0,1.0,4.0,1.0,6.0,1.0,1.0,59.0,0,358,358,358,right,1,0.1904213692760095,2,male,0,right,
1.0,0.0,3.0,0.0,6.0,1.0,0.0,60.0,0,359,359,359,right,0,0.1902816641377285,2,male,0,right,
1.0,1.0,4.0,1.0,7.0,0.0,1.0,1.0,0,360,360,360,right,1,0.15894884418230504,2,male,0,right,
1.0,2.0,5.0,0.0,7.0,0.0,1.0,2.0,0,361,361,361,right,1,0.14243986178189516,2,male,0,right,
1.0,2.0,5.0,0.0,7.0,0.0,1.0,3.0,0,362,362,362,right,1,0.1577957111876458,2,male,0,right,
1.0,0.0,3.0,0.0,7.0,0.0,1.0,4.0,0,363,363,363,right,1,0.17462450498715043,2,male,0,right,
1.0,1.0,4.0,1.0,7.0,0.0,1.0,5.0,0,364,364,364,right,1,0.17379042808897793,2,male,0,right,
0.0,1.0,1.0,0.0,7.0,0.0,0.0,6.0,0,365,365,365,right,0,0.15516548068262637,2,male,0,right,
0.0,0.0,0.0,1.0,7.0,0.0,0.0,7.0,0,366,366,366,right,0,0.17420161399058998,2,male,0,right,
0.0,1.0,1.0,0.0,7.0,0.0,0.0,8.0,0,367,367,367,right,0,0.19066868489608169,2,male,0,right,
1.0,2.0,5.0,0.0,7.0,0.0,1.0,9.0,0,368,368,368,right,1,0.21916889096610248,2,male,0,right,
1.0,2.0,5.0,0.0,7.0,0.0,1.0,10.0,0,369,369,369,right,1,0.1905350211309269,2,male,0,right,
1.0,0.0,3.0,0.0,7.0,0.0,1.0,11.0,0,370,370,370,right,1,0.2378886112710461,2,male,0,right,
0.0,0.0,0.0,1.0,7.0,0.0,0.0,12.0,0,371,371,371,right,0,0.1871114926179871,2,male,0,right,
0.0,0.0,0.0,1.0,7.0,0.0,0.0,13.0,0,372,372,372,right,0,0.19026995915919542,2,male,0,right,
0.0,0.0,0.0,1.0,7.0,0.0,0.0,14.0,0,373,373,373,right,0,0.20653653459157795,2,male,0,right,
1.0,2.0,5.0,0.0,7.0,0.0,1.0,15.0,0,374,374,374,right,1,0.18724553380161524,2,male,0,right,
0.0,0.0,0.0,1.0,7.0,0.0,0.0,16.0,0,375,375,375,right,0,0.20329235692042857,2,male,0,right,
0.0,2.0,2.0,0.0,7.0,0.0,0.0,17.0,0,376,376,376,right,0,0.1743443397572264,2,male,0,right,
0.0,1.0,1.0,0.0,7.0,0.0,0.0,18.0,0,377,377,377,right,0,0.19113688555080444,2,male,0,right,
0.0,2.0,2.0,0.0,7.0,0.0,0.0,19.0,0,378,378,378,right,0,0.20639078819658607,2,male,0,right,
0.0,0.0,0.0,1.0,7.0,0.0,0.0,20.0,0,379,379,379,right,0,0.1895015814807266,2,male,0,right,
0.0,1.0,1.0,0.0,7.0,0.0,0.0,21.0,0,380,380,380,right,0,0.19069247250445187,2,male,0,right,
1.0,0.0,3.0,0.0,7.0,0.0,1.0,22.0,0,381,381,381,right,1,0.21869011805392802,2,male,0,right,
1.0,0.0,3.0,0.0,7.0,0.0,1.0,23.0,0,382,382,382,right,1,0.17415252840146422,2,male,0,right,
1.0,0.0,3.0,0.0,7.0,0.0,1.0,24.0,0,383,383,383,right,1,0.2075794138945639,2,male,0,right,
1.0,2.0,5.0,0.0,7.0,0.0,1.0,25.0,0,384,384,384,right,1,0.20605096512008458,2,male,0,right,
1.0,1.0,4.0,1.0,7.0,0.0,1.0,26.0,0,385,385,385,right,1,0.205457029864192,2,male,0,right,
0.0,2.0,2.0,0.0,7.0,0.0,0.0,27.0,0,386,386,386,right,0,0.2030778907937929,2,male,0,right,
1.0,1.0,4.0,1.0,7.0,0.0,1.0,28.0,0,387,387,387,right,1,0.18711791140958667,2,male,0,right,
1.0,0.0,3.0,0.0,7.0,0.0,1.0,29.0,0,388,388,388,right,1,0.22309988865163177,2,male,0,right,
1.0,0.0,3.0,0.0,7.0,0.0,1.0,30.0,0,389,389,389,right,1,0.1904621480498463,2,male,0,right,
1.0,2.0,5.0,0.0,7.0,0.0,1.0,31.0,0,390,390,390,right,1,0.23890279443003237,2,male,0,right,
1.0,0.0,3.0,0.0,7.0,0.0,1.0,32.0,0,391,391,391,right,1,0.20533997984603047,2,male,0,right,
0.0,0.0,0.0,1.0,7.0,0.0,0.0,33.0,0,392,392,392,right,0,0.1867648729821667,2,male,0,right,
0.0,2.0,2.0,0.0,7.0,0.0,0.0,34.0,0,393,393,393,right,0,0.22385882691014558,2,male,0,right,
0.0,2.0,2.0,0.0,7.0,0.0,0.0,35.0,0,394,394,394,right,0,0.20483062276616693,2,male,0,right,
0.0,1.0,1.0,0.0,7.0,0.0,0.0,36.0,0,395,395,395,right,0,0.20631225127726793,2,male,0,right,
1.0,1.0,4.0,1.0,7.0,0.0,1.0,37.0,0,396,396,396,right,1,0.2196151918033138,2,male,0,right,
0.0,1.0,1.0,0.0,7.0,0.0,0.0,38.0,0,397,397,397,right,0,0.23499105323571712,2,male,0,right,
1.0,2.0,5.0,0.0,7.0,0.0,1.0,39.0,0,398,398,398,right,1,0.1867554335622117,2,male,0,right,
1.0,2.0,5.0,0.0,7.0,0.0,1.0,40.0,0,399,399,399,right,1,0.22165866126306355,2,male,0,right,
1.0,0.0,3.0,0.0,7.0,0.0,1.0,41.0,0,400,400,400,right,1,0.22242213052231818,2,male,0,right,
1.0,1.0,4.0,1.0,7.0,0.0,1.0,42.0,0,401,401,401,right,1,0.22278498602099717,2,male,0,right,
0.0,2.0,2.0,0.0,7.0,0.0,0.0,43.0,0,402,402,402,right,0,0.2182426842628047,2,male,0,right,
0.0,1.0,1.0,0.0,7.0,0.0,0.0,44.0,0,403,403,403,right,0,0.2063318855362013,2,male,0,right,
0.0,0.0,0.0,1.0,7.0,0.0,0.0,45.0,0,404,404,404,right,0,0.17393957264721394,2,male,0,right,
0.0,0.0,0.0,1.0,7.0,0.0,0.0,46.0,0,405,405,405,right,0,0.19033112737815827,2,male,0,right,
1.0,1.0,4.0,1.0,7.0,0.0,1.0,47.0,0,406,406,406,right,1,0.17137957212980837,2,male,0,right,
0.0,2.0,2.0,0.0,7.0,0.0,0.0,48.0,0,407,407,407,right,0,0.20299180236179382,2,male,0,right,
0.0,1.0,1.0,0.0,7.0,0.0,0.0,49.0,0,408,408,408,right,0,0.17405662289820611,2,male,0,right,
1.0,1.0,4.0,1.0,7.0,0.0,1.0,50.0,0,409,409,409,right,1,0.1870926134288311,2,male,0,right,
0.0,1.0,1.0,0.0,7.0,0.0,0.0,51.0,0,410,410,410,right,0,0.20252020342741162,2,male,0,right,
1.0,1.0,4.0,1.0,7.0,0.0,1.0,52.0,0,411,411,411,right,1,0.18685549253132194,2,male,0,right,
1.0,1.0,4.0,1.0,7.0,0.0,1.0,53.0,0,412,412,412,right,1,0.17578896530903876,2,male,0,right,
0.0,1.0,1.0,0.0,7.0,0.0,0.0,54.0,0,413,413,413,right,0,0.20221889368258417,2,male,0,right,
1.0,0.0,3.0,0.0,7.0,0.0,1.0,55.0,0,414,414,414,right,1,0.20257457508705556,2,male,0,right,
0.0,2.0,2.0,0.0,7.0,0.0,0.0,56.0,0,415,415,415,right,0,0.18776999413967133,2,male,0,right,
0.0,0.0,0.0,1.0,7.0,0.0,0.0,57.0,0,416,416,416,right,0,0.22224957589060068,2,male,0,right,
0.0,2.0,2.0,0.0,7.0,0.0,0.0,58.0,0,417,417,417,right,0,0.18954915669746697,2,male,0,right,
1.0,2.0,5.0,0.0,7.0,0.0,1.0,59.0,0,418,418,418,right,1,0.17097631539218128,2,male,0,right,
0.0,2.0,2.0,0.0,7.0,0.0,0.0,60.0,0,419,419,419,right,0,0.1870873273583129,2,male,0,right,
0.0,2.0,2.0,0.0,8.0,1.0,2.0,1.0,0,420,420,420,right,0,0.2704519684193656,2,male,0,right,
0.0,0.0,0.0,1.0,8.0,1.0,0.0,2.0,0,421,421,421,right,0,0.15791653713677078,2,male,0,right,
0.0,2.0,2.0,0.0,8.0,1.0,2.0,3.0,0,422,422,422,right,0,0.20596978510729969,2,male,0,right,
0.0,0.0,0.0,1.0,8.0,1.0,0.0,4.0,0,423,423,423,right,0,0.1741196789080277,2,male,0,right,
1.0,0.0,3.0,0.0,8.0,1.0,0.0,5.0,0,424,424,424,right,0,0.18752947496250272,2,male,0,right,
1.0,1.0,4.0,1.0,8.0,1.0,1.0,6.0,0,425,425,425,right,1,0.2063481215154752,2,male,0,right,
0.0,0.0,0.0,1.0,8.0,1.0,0.0,7.0,0,426,426,426,right,0,0.217655167914927,2,male,0,right,
1.0,0.0,3.0,0.0,8.0,1.0,0.0,8.0,0,427,427,427,right,0,0.17050660448148847,2,male,0,right,
1.0,1.0,4.0,1.0,8.0,1.0,1.0,9.0,0,428,428,428,right,1,0.20613743120338768,2,male,0,right,
0.0,2.0,2.0,0.0,8.0,1.0,2.0,10.0,0,429,429,429,right,0,0.2031700205989182,2,male,0,right,
1.0,0.0,3.0,0.0,8.0,1.0,0.0,11.0,0,430,430,430,right,0,0.1715959261637181,2,male,0,right,
0.0,1.0,1.0,0.0,8.0,1.0,1.0,12.0,0,431,431,431,right,1,0.18748265481553972,2,male,0,right,
1.0,0.0,3.0,0.0,8.0,1.0,0.0,13.0,0,432,432,432,right,0,0.18685662525240332,2,male,0,right,
0.0,0.0,0.0,1.0,8.0,1.0,0.0,14.0,0,433,433,433,right,0,0.20325271086767316,2,male,0,right,
1.0,0.0,3.0,0.0,8.0,1.0,0.0,15.0,0,434,434,434,right,0,0.23459157231263816,2,male,0,right,
1.0,0.0,3.0,0.0,8.0,1.0,0.0,16.0,0,435,435,435,right,0,0.1740286818239838,2,male,0,right,
0.0,2.0,2.0,0.0,8.0,1.0,2.0,17.0,0,436,436,436,right,0,0.18693742773029953,2,male,0,right,
0.0,0.0,0.0,1.0,8.0,1.0,0.0,18.0,0,437,437,437,right,0,0.1904040005756542,2,male,0,right,
0.0,1.0,1.0,0.0,8.0,1.0,1.0,19.0,0,438,438,438,right,1,0.1900132040027529,2,male,0,right,
0.0,1.0,1.0,0.0,8.0,1.0,1.0,20.0,0,439,439,439,right,1,0.2065682513639331,2,male,0,right,
1.0,1.0,4.0,1.0,8.0,1.0,1.0,21.0,0,440,440,440,right,1,0.1549091029446572,2,male,0,right,
0.0,1.0,1.0,0.0,8.0,1.0,1.0,22.0,0,441,441,441,right,1,0.18633065465837717,2,male,0,right,
1.0,2.0,5.0,0.0,8.0,1.0,2.0,23.0,0,442,442,442,right,0,0.20308468723669648,2,male,0,right,
0.0,0.0,0.0,1.0,8.0,1.0,0.0,24.0,0,443,443,443,right,0,0.15533237147610635,2,male,0,right,
0.0,1.0,1.0,0.0,8.0,1.0,1.0,25.0,0,444,444,444,right,1,0.2062692070612684,2,male,0,right,
0.0,2.0,2.0,0.0,8.0,1.0,2.0,26.0,0,445,445,445,right,0,0.20626580889802426,2,male,0,right,
0.0,2.0,2.0,0.0,8.0,1.0,2.0,27.0,0,446,446,446,right,0,0.2061544224852696,2,male,0,right,
0.0,1.0,1.0,0.0,8.0,1.0,1.0,28.0,0,447,447,447,right,1,0.20773082389496267,2,male,0,right,
1.0,2.0,5.0,0.0,8.0,1.0,2.0,29.0,0,448,448,448,right,0,0.20276676397770643,2,male,0,right,
0.0,1.0,1.0,0.0,8.0,1.0,1.0,30.0,0,449,449,449,right,1,0.20290118281263858,2,male,0,right,
0.0,2.0,2.0,0.0,8.0,1.0,2.0,31.0,0,450,450,450,right,0,0.2224553576670587,2,male,0,right,
1.0,1.0,4.0,1.0,8.0,1.0,1.0,32.0,0,451,451,451,right,1,0.1859832799527794,2,male,0,right,
1.0,2.0,5.0,0.0,8.0,1.0,2.0,33.0,0,452,452,452,right,0,0.19032810674980283,2,male,0,right,
1.0,1.0,4.0,1.0,8.0,1.0,1.0,34.0,0,453,453,453,right,1,0.2064700803020969,2,male,0,right,
1.0,2.0,5.0,0.0,8.0,1.0,2.0,35.0,0,454,454,454,right,0,0.22235718660522252,2,male,0,right,
1.0,2.0,5.0,0.0,8.0,1.0,2.0,36.0,0,455,455,455,right,0,0.19051576452329755,2,male,0,right,
1.0,2.0,5.0,0.0,8.0,1.0,2.0,37.0,0,456,456,456,right,0,0.19048064947128296,2,male,0,right,
0.0,2.0,2.0,0.0,8.0,1.0,2.0,38.0,0,457,457,457,right,0,0.1708094245987013,2,male,0,right,
0.0,2.0,2.0,0.0,8.0,1.0,2.0,39.0,0,458,458,458,right,0,0.20665849326178432,2,male,0,right,
1.0,2.0,5.0,0.0,8.0,1.0,2.0,40.0,0,459,459,459,right,0,0.21945396473165601,2,male,0,right,
0.0,1.0,1.0,0.0,8.0,1.0,1.0,41.0,0,460,460,460,right,1,0.2019474128028378,2,male,0,right,
1.0,0.0,3.0,0.0,8.0,1.0,0.0,42.0,0,461,461,461,right,0,0.20282302354462445,2,male,0,right,
1.0,0.0,3.0,0.0,8.0,1.0,0.0,43.0,0,462,462,462,right,0,0.1902654281584546,2,male,0,right,
0.0,1.0,1.0,0.0,8.0,1.0,1.0,44.0,0,463,463,463,right,1,0.18714811792597175,2,male,0,right,
1.0,2.0,5.0,0.0,8.0,1.0,2.0,45.0,0,464,464,464,right,0,0.20270370785146952,2,male,0,right,
0.0,0.0,0.0,1.0,8.0,1.0,0.0,46.0,0,465,465,465,right,0,0.20313264010474086,2,male,0,right,
1.0,2.0,5.0,0.0,8.0,1.0,2.0,47.0,0,466,466,466,right,0,0.20259798516053706,2,male,0,right,
1.0,1.0,4.0,1.0,8.0,1.0,1.0,48.0,0,467,467,467,right,1,0.2222374933771789,2,male,0,right,
0.0,0.0,0.0,1.0,8.0,1.0,0.0,49.0,0,468,468,468,right,0,0.21883699705358595,2,male,0,right,
0.0,1.0,1.0,0.0,8.0,1.0,1.0,50.0,0,469,469,469,right,1,0.22282085625920445,2,male,0,right,
1.0,1.0,4.0,1.0,8.0,1.0,1.0,51.0,0,470,470,470,right,1,0.21934106794651598,2,male,0,right,
0.0,0.0,0.0,1.0,8.0,1.0,0.0,52.0,0,471,471,471,right,0,0.21885512094013393,2,male,0,right,
1.0,1.0,4.0,1.0,8.0,1.0,1.0,53.0,0,472,472,472,right,1,0.18735012388788164,2,male,0,right,
0.0,2.0,2.0,0.0,8.0,1.0,2.0,54.0,0,473,473,473,right,0,0.20263914146926254,2,male,0,right,
1.0,2.0,5.0,0.0,8.0,1.0,2.0,55.0,0,474,474,474,right,0,0.21964237769134343,2,male,0,right,
1.0,1.0,4.0,1.0,8.0,1.0,1.0,56.0,0,475,475,475,right,1,0.2220249151578173,2,male,0,right,
1.0,1.0,4.0,1.0,8.0,1.0,1.0,57.0,0,476,476,476,right,1,0.1903356583788991,2,male,0,right,
0.0,0.0,0.0,1.0,8.0,1.0,0.0,58.0,0,477,477,477,right,0,0.2031654897145927,2,male,0,right,
1.0,0.0,3.0,0.0,8.0,1.0,0.0,59.0,0,478,478,478,right,0,0.21931992331519723,2,male,0,right,
1.0,0.0,3.0,0.0,8.0,1.0,0.0,60.0,0,479,479,479,right,0,0.2059656318742782,2,male,0,right,
1.0,1.0,4.0,1.0,9.0,0.0,1.0,1.0,0,480,480,480,right,1,0.22268719249404967,2,male,0,right,
1.0,1.0,4.0,1.0,9.0,0.0,1.0,2.0,0,481,481,481,right,1,0.17430016270373017,2,male,0,right,
0.0,2.0,2.0,0.0,9.0,0.0,0.0,3.0,0,482,482,482,right,0,0.18685662525240332,2,male,0,right,
0.0,0.0,0.0,1.0,9.0,0.0,0.0,4.0,0,483,483,483,right,0,0.1903413221007213,2,male,0,right,
0.0,1.0,1.0,0.0,9.0,0.0,0.0,5.0,0,484,484,484,right,0,0.1902786436257884,2,male,0,right,
0.0,2.0,2.0,0.0,9.0,0.0,0.0,6.0,0,485,485,485,right,0,0.17449801531620324,2,male,0,right,
1.0,1.0,4.0,1.0,9.0,0.0,1.0,7.0,0,486,486,486,right,1,0.20253153087105602,2,male,0,right,
0.0,0.0,0.0,1.0,9.0,0.0,0.0,8.0,0,487,487,487,right,0,0.2190137051511556,2,male,0,right,
0.0,2.0,2.0,0.0,9.0,0.0,0.0,9.0,0,488,488,488,right,0,0.20629563776310533,2,male,0,right,
0.0,0.0,0.0,1.0,9.0,0.0,0.0,10.0,0,489,489,489,right,0,0.19014422467444092,2,male,0,right,
0.0,1.0,1.0,0.0,9.0,0.0,0.0,11.0,0,490,490,490,right,0,0.19025674392469227,2,male,0,right,
1.0,1.0,4.0,1.0,9.0,0.0,1.0,12.0,0,491,491,491,right,1,0.21893516823183745,2,male,0,right,
0.0,2.0,2.0,0.0,9.0,0.0,0.0,13.0,0,492,492,492,right,0,0.18701974023133516,2,male,0,right,
1.0,1.0,4.0,1.0,9.0,0.0,1.0,14.0,0,493,493,493,right,1,0.20262819156050682,2,male,0,right,
0.0,0.0,0.0,1.0,9.0,0.0,0.0,15.0,0,494,494,494,right,0,0.20320324786007404,2,male,0,right,
1.0,1.0,4.0,1.0,9.0,0.0,1.0,16.0,0,495,495,495,right,1,0.1866734983632341,2,male,0,right,
0.0,0.0,0.0,1.0,9.0,0.0,0.0,17.0,0,496,496,496,right,0,0.21950569341424853,2,male,0,right,
1.0,2.0,5.0,0.0,9.0,0.0,1.0,18.0,0,497,497,497,right,1,0.17062931845430285,2,male,0,right,
0.0,0.0,0.0,1.0,9.0,0.0,0.0,19.0,0,498,498,498,right,0,0.20303069311194122,2,male,0,right,
0.0,0.0,0.0,1.0,9.0,0.0,0.0,20.0,0,499,499,499,right,0,0.20616121881175786,2,male,0,right,
0.0,1.0,1.0,0.0,9.0,0.0,0.0,21.0,0,500,500,500,right,0,0.19040286785457283,2,male,0,right,
0.0,1.0,1.0,0.0,9.0,0.0,0.0,22.0,0,501,501,501,right,0,0.2224904727190733,2,male,0,right,
0.0,2.0,2.0,0.0,9.0,0.0,0.0,23.0,0,502,502,502,right,0,0.20614498294889927,2,male,0,right,
0.0,1.0,1.0,0.0,9.0,0.0,0.0,24.0,0,503,503,503,right,0,0.20621823356486857,2,male,0,right,
1.0,2.0,5.0,0.0,9.0,0.0,1.0,25.0,0,504,504,504,right,1,0.18718700879253447,2,male,0,right,
1.0,1.0,4.0,1.0,9.0,0.0,1.0,26.0,0,505,505,505,right,1,0.25438928697258234,2,male,0,right,
0.0,2.0,2.0,0.0,9.0,0.0,0.0,27.0,0,506,506,506,right,0,0.21913566382136196,2,male,0,right,
1.0,2.0,5.0,0.0,9.0,0.0,1.0,28.0,0,507,507,507,right,1,0.20260213850997388,2,male,0,right,
1.0,1.0,4.0,1.0,9.0,0.0,1.0,29.0,0,508,508,508,right,1,0.20659581490326673,2,male,0,right,
1.0,2.0,5.0,0.0,9.0,0.0,1.0,30.0,0,509,509,509,right,1,0.20611288852524012,2,male,0,right,
1.0,0.0,3.0,0.0,9.0,0.0,1.0,31.0,0,510,510,510,right,1,0.222305080271326,2,male,0,right,
1.0,0.0,3.0,0.0,9.0,0.0,1.0,32.0,0,511,511,511,right,1,0.22220690920948982,2,male,0,right,
1.0,0.0,3.0,0.0,9.0,0.0,1.0,33.0,0,512,512,512,right,1,0.19048215984366834,2,male,0,right,
1.0,0.0,3.0,0.0,9.0,0.0,1.0,34.0,0,513,513,513,right,1,0.1904621480498463,2,male,0,right,
0.0,2.0,2.0,0.0,9.0,0.0,0.0,35.0,0,514,514,514,right,0,0.2025832594372332,2,male,0,right,
1.0,2.0,5.0,0.0,9.0,0.0,1.0,36.0,0,515,515,515,right,1,0.18757931562140584,2,male,0,right,
0.0,2.0,2.0,0.0,9.0,0.0,0.0,37.0,0,516,516,516,right,0,0.20298425073269755,2,male,0,right,
1.0,2.0,5.0,0.0,9.0,0.0,1.0,38.0,0,517,517,517,right,1,0.18695894966367632,2,male,0,right,
1.0,1.0,4.0,1.0,9.0,0.0,1.0,39.0,0,518,518,518,right,1,0.17353065218776464,2,male,0,right,
1.0,0.0,3.0,0.0,9.0,0.0,1.0,40.0,0,519,519,519,right,1,0.19018084998242557,2,male,0,right,
1.0,0.0,3.0,0.0,9.0,0.0,1.0,41.0,0,520,520,520,right,1,0.22247499192599207,2,male,0,right,
0.0,1.0,1.0,0.0,9.0,0.0,0.0,42.0,0,521,521,521,right,0,0.18712848366703838,2,male,0,right,
1.0,2.0,5.0,0.0,9.0,0.0,1.0,43.0,0,522,522,522,right,1,0.21887890854850411,2,male,0,right,
0.0,1.0,1.0,0.0,9.0,0.0,0.0,44.0,0,523,523,523,right,0,0.21906920953188092,2,male,0,right,
1.0,2.0,5.0,0.0,9.0,0.0,1.0,45.0,0,524,524,524,right,1,0.21921193518210202,2,male,0,right,
1.0,1.0,4.0,1.0,9.0,0.0,1.0,46.0,0,525,525,525,right,1,0.2227189092664048,2,male,0,right,
0.0,0.0,0.0,1.0,9.0,0.0,0.0,47.0,0,526,526,526,right,0,0.21849037753418088,2,male,0,right,
0.0,1.0,1.0,0.0,9.0,0.0,0.0,48.0,0,527,527,527,right,0,0.19004378817044199,2,male,0,right,
1.0,2.0,5.0,0.0,9.0,0.0,1.0,49.0,0,528,528,528,right,1,0.2189721711911261,2,male,0,right,
1.0,0.0,3.0,0.0,9.0,0.0,1.0,50.0,0,529,529,529,right,1,0.2072056083707139,2,male,0,right,
0.0,1.0,1.0,0.0,9.0,0.0,0.0,51.0,0,530,530,530,right,0,0.20209882280323654,2,male,0,right,
0.0,0.0,0.0,1.0,9.0,0.0,0.0,52.0,0,531,531,531,right,0,0.2222597706131637,2,male,0,right,
1.0,0.0,3.0,0.0,9.0,0.0,1.0,53.0,0,532,532,532,right,1,0.20332709443755448,2,male,0,right,
0.0,1.0,1.0,0.0,9.0,0.0,0.0,54.0,0,533,533,533,right,0,0.21796931559219956,2,male,0,right,
0.0,2.0,2.0,0.0,9.0,0.0,0.0,55.0,0,534,534,534,right,0,0.23872721916995943,2,male,0,right,
1.0,0.0,3.0,0.0,9.0,0.0,1.0,56.0,0,535,535,535,right,1,0.2186206430196762,2,male,0,right,
1.0,2.0,5.0,0.0,9.0,0.0,1.0,57.0,0,536,536,536,right,1,0.2223907911684364,2,male,0,right,
0.0,0.0,0.0,1.0,9.0,0.0,0.0,58.0,0,537,537,537,right,0,0.20288230385631323,2,male,0,right,
1.0,0.0,3.0,0.0,9.0,0.0,1.0,59.0,0,538,538,538,right,1,0.20413360779639333,2,male,0,right,
0.0,2.0,2.0,0.0,9.0,0.0,0.0,60.0,0,539,539,539,right,0,0.20245110616087914,2,male,0,right,
0.0,1.0,1.0,0.0,10.0,0.0,0.0,1.0,0,540,540,540,right,0,0.2227253281744197,2,male,0,right,
0.0,2.0,2.0,0.0,10.0,0.0,0.0,2.0,0,541,541,541,right,0,0.17441532493103296,2,male,0,right,
1.0,0.0,3.0,0.0,10.0,0.0,1.0,3.0,0,542,542,542,right,1,0.20255154266487807,2,male,0,right,
0.0,0.0,0.0,1.0,10.0,0.0,0.0,4.0,0,543,543,543,right,0,0.1716125396778807,2,male,0,right,
1.0,1.0,4.0,1.0,10.0,0.0,1.0,5.0,0,544,544,544,right,1,0.20281245128717273,2,male,0,right,
0.0,1.0,1.0,0.0,10.0,0.0,0.0,6.0,0,545,545,545,right,0,0.2020686164032668,2,male,0,right,
0.0,0.0,0.0,1.0,10.0,0.0,0.0,7.0,0,546,546,546,right,0,0.1901457350468263,2,male,0,right,
1.0,1.0,4.0,1.0,10.0,0.0,1.0,8.0,0,547,547,547,right,1,0.29852852830663323,2,male,0,right,
1.0,2.0,5.0,0.0,10.0,0.0,1.0,9.0,0,548,548,548,right,1,0.15858485584612936,2,male,0,right,
0.0,2.0,2.0,0.0,10.0,0.0,0.0,10.0,0,549,549,549,right,0,0.21876299113500863,2,male,0,right,
1.0,0.0,3.0,0.0,10.0,0.0,1.0,11.0,0,550,550,550,right,1,0.20287059876136482,2,male,0,right,
0.0,2.0,2.0,0.0,10.0,0.0,0.0,12.0,0,551,551,551,right,0,0.17113452195189893,2,male,0,right,
0.0,1.0,1.0,0.0,10.0,0.0,0.0,13.0,0,552,552,552,right,0,0.22188898583408445,2,male,0,right,
1.0,0.0,3.0,0.0,10.0,0.0,1.0,14.0,0,553,553,553,right,1,0.1868974040262401,2,male,0,right,
0.0,2.0,2.0,0.0,10.0,0.0,0.0,15.0,0,554,554,554,right,0,0.20406375534366816,2,male,0,right,
1.0,0.0,3.0,0.0,10.0,0.0,1.0,16.0,0,555,555,555,right,1,0.21776277862954885,2,male,0,right,
1.0,2.0,5.0,0.0,10.0,0.0,1.0,17.0,0,556,556,556,right,1,0.222025292692706,2,male,0,right,
1.0,2.0,5.0,0.0,10.0,0.0,1.0,18.0,0,557,557,557,right,1,0.20698434591758996,2,male,0,right,
0.0,0.0,0.0,1.0,10.0,0.0,0.0,19.0,0,558,558,558,right,0,0.18769372277893126,2,male,0,right,
1.0,2.0,5.0,0.0,10.0,0.0,1.0,20.0,0,559,559,559,right,1,0.2190352272009477,2,male,0,right,
1.0,0.0,3.0,0.0,10.0,0.0,1.0,21.0,0,560,560,560,right,1,0.20623635756783187,2,male,0,right,
1.0,2.0,5.0,0.0,10.0,0.0,1.0,22.0,0,561,561,561,right,1,0.22226694459095597,2,male,0,right,
1.0,1.0,4.0,1.0,10.0,0.0,1.0,23.0,0,562,562,562,right,1,0.1899845078587532,2,male,0,right,
1.0,1.0,4.0,1.0,10.0,0.0,1.0,24.0,0,563,563,563,right,1,0.23884804511908442,2,male,0,right,
0.0,1.0,1.0,0.0,10.0,0.0,0.0,25.0,0,564,564,564,right,0,0.17002216773107648,2,male,0,right,
0.0,1.0,1.0,0.0,10.0,0.0,0.0,26.0,0,565,565,565,right,0,0.19020765833556652,2,male,0,right,
1.0,1.0,4.0,1.0,10.0,0.0,1.0,27.0,0,566,566,566,right,1,0.20341544842813164,2,male,0,right,
0.0,0.0,0.0,1.0,10.0,0.0,0.0,28.0,0,567,567,567,right,0,0.18697594094555825,2,male,0,right,
1.0,1.0,4.0,1.0,10.0,0.0,1.0,29.0,0,568,568,568,right,1,0.20300010917708278,2,male,0,right,
1.0,0.0,3.0,0.0,10.0,0.0,1.0,30.0,0,569,569,569,right,1,0.19177008932456374,2,male,0,right,
0.0,0.0,0.0,1.0,10.0,0.0,0.0,31.0,0,570,570,570,right,0,0.17071804986335337,2,male,0,right,
0.0,2.0,2.0,0.0,10.0,0.0,0.0,32.0,0,571,571,571,right,0,0.19029185897670686,2,male,0,right,
0.0,1.0,1.0,0.0,10.0,0.0,0.0,33.0,0,572,572,572,right,0,0.18982252548448741,2,male,0,right,
0.0,2.0,2.0,0.0,10.0,0.0,0.0,34.0,0,573,573,573,right,0,0.15735998249147087,2,male,0,right,
0.0,0.0,0.0,1.0,10.0,0.0,0.0,35.0,0,574,574,574,right,0,0.17530754930339754,2,male,0,right,
1.0,1.0,4.0,1.0,10.0,0.0,1.0,36.0,0,575,575,575,right,1,0.15415507333818823,2,male,0,right,
1.0,0.0,3.0,0.0,10.0,0.0,1.0,37.0,0,576,576,576,right,1,0.190444401698187,2,male,0,right,
1.0,2.0,5.0,0.0,10.0,0.0,1.0,38.0,0,577,577,577,right,1,0.15825409477110952,2,male,0,right,
0.0,0.0,0.0,1.0,10.0,0.0,0.0,39.0,0,578,578,578,right,0,0.122698406688869,2,male,0,right,
1.0,0.0,3.0,0.0,10.0,0.0,1.0,40.0,0,579,579,579,left,0,0.6205384534550831,2,male,0,right,
1.0,1.0,4.0,1.0,10.0,0.0,1.0,41.0,0,580,580,580,left,0,0.1728083393536508,2,male,0,right,
0.0,0.0,0.0,1.0,10.0,0.0,0.0,42.0,0,581,581,581,left,1,0.1880418525543064,2,male,0,right,
0.0,2.0,2.0,0.0,10.0,0.0,0.0,43.0,0,582,582,582,left,1,0.15843193558976054,2,male,0,right,
0.0,0.0,0.0,1.0,10.0,0.0,0.0,44.0,0,583,583,583,left,1,0.19029110367409885,2,male,0,right,
1.0,2.0,5.0,0.0,10.0,0.0,1.0,45.0,0,584,584,584,left,0,0.17179491149727255,2,male,0,right,
0.0,0.0,0.0,1.0,10.0,0.0,0.0,46.0,0,585,585,585,left,1,0.20331312390044332,2,male,0,right,
0.0,1.0,1.0,0.0,10.0,0.0,0.0,47.0,0,586,586,586,left,1,0.17326596786733717,2,male,0,right,
1.0,1.0,4.0,1.0,10.0,0.0,1.0,48.0,0,587,587,587,left,0,0.17070445697754622,2,male,0,right,
1.0,0.0,3.0,0.0,10.0,0.0,1.0,49.0,0,588,588,588,left,0,0.19013025413732976,2,male,0,right,
0.0,2.0,2.0,0.0,10.0,0.0,0.0,50.0,0,589,589,589,left,1,0.17095026234164834,2,male,0,right,
1.0,0.0,3.0,0.0,10.0,0.0,1.0,51.0,0,590,590,590,left,0,0.20298349554650486,2,male,0,right,
0.0,1.0,1.0,0.0,10.0,0.0,0.0,52.0,0,591,591,591,left,1,0.17056815011892468,2,male,0,right,
1.0,2.0,5.0,0.0,10.0,0.0,1.0,53.0,0,592,592,592,left,0,0.18686795269604772,2,male,0,right,
0.0,2.0,2.0,0.0,10.0,0.0,0.0,54.0,0,593,593,593,left,1,0.2032338319113478,2,male,0,right,
1.0,2.0,5.0,0.0,10.0,0.0,1.0,55.0,0,594,594,594,left,0,0.20286833331920207,2,male,0,right,
0.0,2.0,2.0,0.0,10.0,0.0,0.0,56.0,0,595,595,595,left,1,0.17116850428283215,2,male,0,right,
0.0,1.0,1.0,0.0,10.0,0.0,0.0,57.0,0,596,596,596,left,1,0.19047536340076476,2,male,0,right,
0.0,1.0,1.0,0.0,10.0,0.0,0.0,58.0,0,597,597,597,left,1,0.190099292434752,2,male,0,right,
1.0,1.0,4.0,1.0,10.0,0.0,1.0,59.0,0,598,598,598,left,0,0.1872089084936306,2,male,0,right,
1.0,2.0,5.0,0.0,10.0,0.0,1.0,60.0,0,599,599,599,left,0,0.19015253148972988,2,male,0,right,
1.0,2.0,5.0,0.0,11.0,1.0,2.0,1.0,0,600,600,600,left,0,0.22309007158037275,2,male,0,right,
1.0,0.0,3.0,0.0,11.0,1.0,0.0,2.0,0,601,601,601,left,1,0.15811438974924386,2,male,0,right,
1.0,2.0,5.0,0.0,11.0,1.0,2.0,3.0,0,602,602,602,left,0,0.17457126604858786,2,male,0,right,
1.0,1.0,4.0,1.0,11.0,1.0,1.0,4.0,0,603,603,603,left,0,0.1897371921222657,2,male,0,right,
1.0,0.0,3.0,0.0,11.0,1.0,0.0,5.0,0,604,604,604,left,1,0.19026542827486992,2,male,0,right,
1.0,1.0,4.0,1.0,11.0,1.0,1.0,6.0,0,605,605,605,left,0,0.174482156871818,2,male,0,right,
0.0,0.0,0.0,1.0,11.0,1.0,0.0,7.0,0,606,606,606,left,1,0.2194494337309152,2,male,0,right,
1.0,1.0,4.0,1.0,11.0,1.0,1.0,8.0,0,607,607,607,left,0,0.15550379338674247,2,male,0,right,
1.0,2.0,5.0,0.0,11.0,1.0,2.0,9.0,0,608,608,608,left,0,0.19045233097858727,2,male,0,right,
1.0,1.0,4.0,1.0,11.0,1.0,1.0,10.0,0,609,609,609,left,0,0.19049310963600874,2,male,0,right,
0.0,1.0,1.0,0.0,11.0,1.0,1.0,11.0,0,610,610,610,left,0,0.15421586390584707,2,male,0,right,
0.0,2.0,2.0,0.0,11.0,1.0,2.0,12.0,0,611,611,611,left,0,0.17421520687639713,2,male,0,right,
0.0,0.0,0.0,1.0,11.0,1.0,0.0,13.0,0,612,612,612,left,1,0.19009778229519725,2,male,0,right,
1.0,1.0,4.0,1.0,11.0,1.0,1.0,14.0,0,613,613,613,left,0,0.15464177553076297,2,male,0,right,
0.0,2.0,2.0,0.0,11.0,1.0,2.0,15.0,0,614,614,614,left,0,0.17112923576496542,2,male,0,right,
0.0,2.0,2.0,0.0,11.0,1.0,2.0,16.0,0,615,615,615,left,0,0.19011024245992303,2,male,0,right,
0.0,1.0,1.0,0.0,11.0,1.0,1.0,17.0,0,616,616,616,left,0,0.15825258439872414,2,male,0,right,
0.0,0.0,0.0,1.0,11.0,1.0,0.0,18.0,0,617,617,617,left,1,0.17430054035503417,2,male,0,right,
1.0,0.0,3.0,0.0,11.0,1.0,0.0,19.0,0,618,618,618,left,1,0.2031647345284,2,male,0,right,
0.0,0.0,0.0,1.0,11.0,1.0,0.0,20.0,0,619,619,619,left,1,0.17087587888818234,2,male,0,right,
1.0,2.0,5.0,0.0,11.0,1.0,2.0,21.0,0,620,620,620,left,0,0.20315605017822236,2,male,0,right,
0.0,1.0,1.0,0.0,11.0,1.0,1.0,22.0,0,621,621,621,left,0,0.17113225650973618,2,male,0,right,
1.0,1.0,4.0,1.0,11.0,1.0,1.0,23.0,0,622,622,622,left,0,0.2031028112396598,2,male,0,right,
1.0,1.0,4.0,1.0,11.0,1.0,1.0,24.0,0,623,623,623,left,0,0.19037039577960968,2,male,0,right,
1.0,2.0,5.0,0.0,11.0,1.0,2.0,25.0,0,624,624,624,left,0,0.17417027486953884,2,male,0,right,
1.0,2.0,5.0,0.0,11.0,1.0,2.0,26.0,0,625,625,625,left,0,0.22252747556194663,2,male,0,right,
0.0,1.0,1.0,0.0,11.0,1.0,1.0,27.0,0,626,626,626,left,0,0.17087512370198965,2,male,0,right,
1.0,0.0,3.0,0.0,11.0,1.0,0.0,28.0,0,627,627,627,left,1,0.18570500263012946,2,male,0,right,
1.0,2.0,5.0,0.0,11.0,1.0,2.0,29.0,0,628,628,628,left,0,0.19008381175808609,2,male,0,right,
0.0,2.0,2.0,0.0,11.0,1.0,2.0,30.0,0,629,629,629,left,0,0.17127422709017992,2,male,0,right,
1.0,1.0,4.0,1.0,11.0,1.0,1.0,31.0,0,630,630,630,left,0,0.18738486128859222,2,male,0,right,
0.0,1.0,1.0,0.0,11.0,1.0,1.0,32.0,0,631,631,631,left,0,0.20311678166035563,2,male,0,right,
0.0,2.0,2.0,0.0,11.0,1.0,2.0,33.0,0,632,632,632,left,0,0.17434018629137427,2,male,0,right,
0.0,2.0,2.0,0.0,11.0,1.0,2.0,34.0,0,633,633,633,left,0,0.17427146655973047,2,male,0,right,
0.0,1.0,1.0,0.0,11.0,1.0,1.0,35.0,0,634,634,634,left,0,0.1901106198783964,2,male,0,right,
1.0,0.0,3.0,0.0,11.0,1.0,0.0,36.0,0,635,635,635,left,1,0.18707146891392767,2,male,0,right,
1.0,0.0,3.0,0.0,11.0,1.0,0.0,37.0,0,636,636,636,left,1,0.19020237226504833,2,male,0,right,
0.0,0.0,0.0,1.0,11.0,1.0,0.0,38.0,0,637,637,637,left,1,0.1873006607638672,2,male,0,right,
0.0,0.0,0.0,1.0,11.0,1.0,0.0,39.0,0,638,638,638,left,1,0.20696018065791577,2,male,0,right,
1.0,0.0,3.0,0.0,11.0,1.0,0.0,40.0,0,639,639,639,left,1,0.18697443057317287,2,male,0,right,
0.0,2.0,2.0,0.0,11.0,1.0,2.0,41.0,0,640,640,640,left,0,0.16999460442457348,2,male,0,right,
1.0,0.0,3.0,0.0,11.0,1.0,0.0,42.0,0,641,641,641,left,1,0.2190760059747845,2,male,0,right,
0.0,2.0,2.0,0.0,11.0,1.0,2.0,43.0,0,642,642,642,left,0,0.18687663704622537,2,male,0,right,
0.0,1.0,1.0,0.0,11.0,1.0,1.0,44.0,0,643,643,643,left,0,0.19030394149012864,2,male,0,right,
0.0,0.0,0.0,1.0,11.0,1.0,0.0,45.0,0,644,644,644,left,1,0.19006304477807134,2,male,0,right,
1.0,0.0,3.0,0.0,11.0,1.0,0.0,46.0,0,645,645,645,left,1,0.18718625360634178,2,male,0,right,
0.0,0.0,0.0,1.0,11.0,1.0,0.0,47.0,0,646,646,646,left,1,0.18709940998815,2,male,0,right,
0.0,2.0,2.0,0.0,11.0,1.0,2.0,48.0,0,647,647,647,left,0,0.18999961111694574,2,male,0,right,
0.0,0.0,0.0,1.0,11.0,1.0,0.0,49.0,0,648,648,648,left,1,0.19046894449274987,2,male,0,right,
1.0,2.0,5.0,0.0,11.0,1.0,2.0,50.0,0,649,649,649,left,0,0.20310016814619303,2,male,0,right,
0.0,0.0,0.0,1.0,11.0,1.0,0.0,51.0,0,650,650,650,left,1,0.20298878173343837,2,male,0,right,
1.0,0.0,3.0,0.0,11.0,1.0,0.0,52.0,0,651,651,651,left,1,0.2033950590994209,2,male,0,right,
1.0,1.0,4.0,1.0,11.0,1.0,1.0,53.0,0,652,652,652,left,0,0.1899282482918352,2,male,0,right,
0.0,2.0,2.0,0.0,11.0,1.0,2.0,54.0,0,653,653,653,left,0,0.17111073434352875,2,male,0,right,
1.0,1.0,4.0,1.0,11.0,1.0,1.0,55.0,0,654,654,654,left,0,0.17122627422213554,2,male,0,right,
1.0,2.0,5.0,0.0,11.0,1.0,2.0,56.0,0,655,655,655,left,0,0.20621030440088362,2,male,0,right,
0.0,1.0,1.0,0.0,11.0,1.0,1.0,57.0,0,656,656,656,left,0,0.2029113775352016,2,male,0,right,
0.0,1.0,1.0,0.0,11.0,1.0,1.0,58.0,0,657,657,657,left,0,0.1907094637863338,2,male,0,right,
0.0,1.0,1.0,0.0,11.0,1.0,1.0,59.0,0,658,658,658,left,0,0.20614875864703208,2,male,0,right,
1.0,2.0,5.0,0.0,11.0,1.0,2.0,60.0,0,659,659,659,left,0,0.1553754158085212,2,male,0,right,
1.0,0.0,3.0,0.0,12.0,0.0,1.0,1.0,0,660,660,660,left,0,0.19065886782482266,2,male,0,right,
1.0,2.0,5.0,0.0,12.0,0.0,1.0,2.0,0,661,661,661,left,0,0.1899097467539832,2,male,0,right,
0.0,0.0,0.0,1.0,12.0,0.0,0.0,3.0,0,662,662,662,left,1,0.2033255840651691,2,male,0,right,
0.0,0.0,0.0,1.0,12.0,0.0,0.0,4.0,0,663,663,663,left,1,0.1903466081712395,2,male,0,right,
1.0,2.0,5.0,0.0,12.0,0.0,1.0,5.0,0,664,664,664,left,0,0.18719418288674206,2,male,0,right,
0.0,2.0,2.0,0.0,12.0,0.0,0.0,6.0,0,665,665,665,left,1,0.1869208139833063,2,male,0,right,
1.0,0.0,3.0,0.0,12.0,0.0,1.0,7.0,0,666,666,666,left,0,0.2029117550700903,2,male,0,right,
0.0,2.0,2.0,0.0,12.0,0.0,0.0,8.0,0,667,667,667,left,1,0.20319041004404426,2,male,0,right,
1.0,0.0,3.0,0.0,12.0,0.0,1.0,9.0,0,668,668,668,left,0,0.20365483488421887,2,male,0,right,
1.0,0.0,3.0,0.0,12.0,0.0,1.0,10.0,0,669,669,669,left,0,0.17461770854424685,2,male,0,right,
0.0,0.0,0.0,1.0,12.0,0.0,0.0,11.0,0,670,670,670,left,1,0.20357629808131605,2,male,0,right,
1.0,2.0,5.0,0.0,12.0,0.0,1.0,12.0,0,671,671,671,left,0,0.20224456919822842,2,male,0,right,
1.0,0.0,3.0,0.0,12.0,0.0,1.0,13.0,0,672,672,672,left,0,0.2065221865195781,2,male,0,right,
0.0,0.0,0.0,1.0,12.0,0.0,0.0,14.0,0,673,673,673,left,1,0.2031530294334516,2,male,0,right,
0.0,0.0,0.0,1.0,12.0,0.0,0.0,15.0,0,674,674,674,left,1,0.23802303022239357,2,male,0,right,
0.0,2.0,2.0,0.0,12.0,0.0,0.0,16.0,0,675,675,675,left,1,0.19016008311882615,2,male,0,right,
0.0,1.0,1.0,0.0,12.0,0.0,0.0,17.0,0,676,676,676,left,1,0.20634283544495702,2,male,0,right,
0.0,0.0,0.0,1.0,12.0,0.0,0.0,18.0,0,677,677,677,left,1,0.1901736760046333,2,male,0,right,
0.0,1.0,1.0,0.0,12.0,0.0,0.0,19.0,0,678,678,678,left,1,0.23835643427446485,2,male,0,right,
0.0,1.0,1.0,0.0,12.0,0.0,0.0,20.0,0,679,679,679,left,1,0.19036737515125424,2,male,0,right,
1.0,0.0,3.0,0.0,12.0,0.0,1.0,21.0,0,680,680,680,left,0,0.23497368453536183,2,male,0,right,
0.0,1.0,1.0,0.0,12.0,0.0,0.0,22.0,0,681,681,681,left,1,0.2030952594941482,2,male,0,right,
1.0,2.0,5.0,0.0,12.0,0.0,1.0,23.0,0,682,682,682,left,0,0.1879036579048261,2,male,0,right,
0.0,2.0,2.0,0.0,12.0,0.0,0.0,24.0,0,683,683,683,left,1,0.2027629881631583,2,male,0,right,
1.0,2.0,5.0,0.0,12.0,0.0,1.0,25.0,0,684,684,684,left,0,0.18706656037829816,2,male,0,right,
0.0,2.0,2.0,0.0,12.0,0.0,0.0,26.0,0,685,685,685,left,1,0.20264329481869936,2,male,0,right,
1.0,2.0,5.0,0.0,12.0,0.0,1.0,27.0,0,686,686,686,left,0,0.18697027710732073,2,male,0,right,
1.0,1.0,4.0,1.0,12.0,0.0,1.0,28.0,0,687,687,687,left,0,0.20658222190104425,2,male,0,right,
0.0,0.0,0.0,1.0,12.0,0.0,0.0,29.0,0,688,688,688,left,1,0.18687059578951448,2,male,0,right,
0.0,1.0,1.0,0.0,12.0,0.0,0.0,30.0,0,689,689,689,left,1,0.1905765552073717,2,male,0,right,
1.0,0.0,3.0,0.0,12.0,0.0,1.0,31.0,0,690,690,690,left,0,0.20338599709793925,2,male,0,right,
1.0,0.0,3.0,0.0,12.0,0.0,1.0,32.0,0,691,691,691,left,0,0.18984518037177622,2,male,0,right,
1.0,2.0,5.0,0.0,12.0,0.0,1.0,33.0,0,692,692,692,left,0,0.17425976158119738,2,male,0,right,
0.0,0.0,0.0,1.0,12.0,0.0,0.0,34.0,0,693,693,693,left,1,0.18711640103720129,2,male,0,right,
1.0,1.0,4.0,1.0,12.0,0.0,1.0,35.0,0,694,694,694,left,0,0.17097744811326265,2,male,0,right,
0.0,0.0,0.0,1.0,12.0,0.0,0.0,36.0,0,695,695,695,left,1,0.18709185835905373,2,male,0,right,
1.0,1.0,4.0,1.0,12.0,0.0,1.0,37.0,0,696,696,696,left,0,0.15511601755861193,2,male,0,right,
1.0,1.0,4.0,1.0,12.0,0.0,1.0,38.0,0,697,697,697,left,0,0.20650557288900018,2,male,0,right,
1.0,1.0,4.0,1.0,12.0,0.0,1.0,39.0,0,698,698,698,left,0,0.17417593847494572,2,male,0,right,
0.0,2.0,2.0,0.0,12.0,0.0,0.0,40.0,0,699,699,699,left,1,0.18708355154376477,2,male,0,right,
1.0,1.0,4.0,1.0,12.0,0.0,1.0,41.0,0,700,700,700,left,0,0.18697065475862473,2,male,0,right,
1.0,2.0,5.0,0.0,12.0,0.0,1.0,42.0,0,701,701,701,left,0,0.19025863171555102,2,male,0,right,
1.0,1.0,4.0,1.0,12.0,0.0,1.0,43.0,0,702,702,702,left,0,0.17416498856619,2,male,0,right,
0.0,1.0,1.0,0.0,12.0,0.0,0.0,44.0,0,703,703,703,left,1,0.20345622720196843,2,male,0,right,
0.0,1.0,1.0,0.0,12.0,0.0,0.0,45.0,0,704,704,704,left,1,0.20636284723877907,2,male,0,right,
0.0,2.0,2.0,0.0,12.0,0.0,0.0,46.0,0,705,705,705,left,1,0.17405586771201342,2,male,0,right,
1.0,0.0,3.0,0.0,12.0,0.0,1.0,47.0,0,706,706,706,left,0,0.20260893495287746,2,male,0,right,
0.0,0.0,0.0,1.0,12.0,0.0,0.0,48.0,0,707,707,707,left,1,0.2041774073150009,2,male,0,right,
1.0,2.0,5.0,0.0,12.0,0.0,1.0,49.0,0,708,708,708,left,0,0.18577561026904732,2,male,0,right,
0.0,2.0,2.0,0.0,12.0,0.0,0.0,50.0,0,709,709,709,left,1,0.2029929350828752,2,male,0,right,
0.0,1.0,1.0,0.0,12.0,0.0,0.0,51.0,0,710,710,710,left,1,0.19023446657229215,2,male,0,right,
0.0,2.0,2.0,0.0,12.0,0.0,0.0,52.0,0,711,711,711,left,1,0.20654672931414098,2,male,0,right,
0.0,1.0,1.0,0.0,12.0,0.0,0.0,53.0,0,712,712,712,left,1,0.19021445489488542,2,male,0,right,
1.0,2.0,5.0,0.0,12.0,0.0,1.0,54.0,0,713,713,713,left,0,0.18706920347176492,2,male,0,right,
0.0,2.0,2.0,0.0,12.0,0.0,0.0,55.0,0,714,714,714,left,1,0.2027471298351884,2,male,0,right,
0.0,1.0,1.0,0.0,12.0,0.0,0.0,56.0,0,715,715,715,left,1,0.17424277029931545,2,male,0,right,
1.0,1.0,4.0,1.0,12.0,0.0,1.0,57.0,0,716,716,716,left,0,0.1871802123496309,2,male,0,right,
1.0,1.0,4.0,1.0,12.0,0.0,1.0,58.0,0,717,717,717,left,0,0.18985952844377607,2,male,0,right,
1.0,0.0,3.0,0.0,12.0,0.0,1.0,59.0,0,718,718,718,left,0,0.17477704770863056,2,male,0,right,
1.0,1.0,4.0,1.0,12.0,0.0,1.0,60.0,0,719,719,719,left,0,0.19061242532916367,2,male,0,right,
